success,trial_type,trial_index,time_elapsed,internal_node_id,run_id,condition,recorded_at,source_code_version,ip,user_agent,device,browser,browser_version,platform,platform_version,rt,stimulus,response,task,timeout,failed_images,failed_audio,failed_video,slider_start,question_order
true,fullscreen,0,2710,0.0-0.0,10,1,2023-07-28 12:51:15,6ad40e38acdca90a181c9c1a7b1b6550,87.61.103.151,"Mozilla/5.0 (Macintosh; Intel Mac OS X 10_15_7) AppleWebKit/537.36 (KHTML, like Gecko) Chrome/114.0.0.0 Safari/537.36",Macintosh,Chrome,114.0.0.0,OS X,10_15_7,,,,,,,,,,
,html-button-response,1,3813,0.0-1.0,10,1,2023-07-28 12:51:15,6ad40e38acdca90a181c9c1a7b1b6550,87.61.103.151,"Mozilla/5.0 (Macintosh; Intel Mac OS X 10_15_7) AppleWebKit/537.36 (KHTML, like Gecko) Chrome/114.0.0.0 Safari/537.36",Macintosh,Chrome,114.0.0.0,OS X,10_15_7,1101,Welcome to the experiment of Group 6,0,,,,,,,
,html-button-response,2,8877,0.0-2.0,10,1,2023-07-28 12:51:15,6ad40e38acdca90a181c9c1a7b1b6550,87.61.103.151,"Mozilla/5.0 (Macintosh; Intel Mac OS X 10_15_7) AppleWebKit/537.36 (KHTML, like Gecko) Chrome/114.0.0.0 Safari/537.36",Macintosh,Chrome,114.0.0.0,OS X,10_15_7,5062,"
        <p>In this experiment, you will hear different songs. You will have to focus on your emotions during listening to it.</p>
        <p> After each track, you must indicate on a scale how happy or sad it makes you feel.</p>",0,instruction,,,,,,
true,preload,3,8879,0.0-3.0,10,1,2023-07-28 12:51:15,6ad40e38acdca90a181c9c1a7b1b6550,87.61.103.151,"Mozilla/5.0 (Macintosh; Intel Mac OS X 10_15_7) AppleWebKit/537.36 (KHTML, like Gecko) Chrome/114.0.0.0 Safari/537.36",Macintosh,Chrome,114.0.0.0,OS X,10_15_7,,,,,false,[],[],[],,
,audio-slider-response,4,24981,0.0-4.0-0.0,10,1,2023-07-28 12:51:15,6ad40e38acdca90a181c9c1a7b1b6550,87.61.103.151,"Mozilla/5.0 (Macintosh; Intel Mac OS X 10_15_7) AppleWebKit/537.36 (KHTML, like Gecko) Chrome/114.0.0.0 Safari/537.36",Macintosh,Chrome,114.0.0.0,OS X,10_15_7,16045,Eric-Clapton-Tears-In-Heaven-Ins.mp3,32,audio_slider,,,,,50,
,survey-multi-choice,5,27180,0.0-5.0-0.0,10,1,2023-07-28 12:51:15,6ad40e38acdca90a181c9c1a7b1b6550,87.61.103.151,"Mozilla/5.0 (Macintosh; Intel Mac OS X 10_15_7) AppleWebKit/537.36 (KHTML, like Gecko) Chrome/114.0.0.0 Safari/537.36",Macintosh,Chrome,114.0.0.0,OS X,10_15_7,2197,,"{""familiarity"":""yes""}",multi_choice,,,,,,[0]
true,preload,6,27183,0.0-6.0,10,1,2023-07-28 12:51:15,6ad40e38acdca90a181c9c1a7b1b6550,87.61.103.151,"Mozilla/5.0 (Macintosh; Intel Mac OS X 10_15_7) AppleWebKit/537.36 (KHTML, like Gecko) Chrome/114.0.0.0 Safari/537.36",Macintosh,Chrome,114.0.0.0,OS X,10_15_7,,,,,false,[],[],[],,
,audio-slider-response,7,52637,0.0-7.0-0.0,10,1,2023-07-28 12:51:15,6ad40e38acdca90a181c9c1a7b1b6550,87.61.103.151,"Mozilla/5.0 (Macintosh; Intel Mac OS X 10_15_7) AppleWebKit/537.36 (KHTML, like Gecko) Chrome/114.0.0.0 Safari/537.36",Macintosh,Chrome,114.0.0.0,OS X,10_15_7,25374,Daniel-Powter-Bad-Day-Official-M-[AudioTrimmer.com].mp3,81,audio_slider,,,,,50,
,survey-multi-choice,8,54597,0.0-8.0-0.0,10,1,2023-07-28 12:51:15,6ad40e38acdca90a181c9c1a7b1b6550,87.61.103.151,"Mozilla/5.0 (Macintosh; Intel Mac OS X 10_15_7) AppleWebKit/537.36 (KHTML, like Gecko) Chrome/114.0.0.0 Safari/537.36",Macintosh,Chrome,114.0.0.0,OS X,10_15_7,1957,,"{""familiarity"":""yes""}",multi_choice,,,,,,[0]
true,preload,9,54600,0.0-9.0,10,1,2023-07-28 12:51:15,6ad40e38acdca90a181c9c1a7b1b6550,87.61.103.151,"Mozilla/5.0 (Macintosh; Intel Mac OS X 10_15_7) AppleWebKit/537.36 (KHTML, like Gecko) Chrome/114.0.0.0 Safari/537.36",Macintosh,Chrome,114.0.0.0,OS X,10_15_7,,,,,false,[],[],[],,
,audio-slider-response,10,73424,0.0-10.0-0.0,10,1,2023-07-28 12:51:15,6ad40e38acdca90a181c9c1a7b1b6550,87.61.103.151,"Mozilla/5.0 (Macintosh; Intel Mac OS X 10_15_7) AppleWebKit/537.36 (KHTML, like Gecko) Chrome/114.0.0.0 Safari/537.36",Macintosh,Chrome,114.0.0.0,OS X,10_15_7,18698,Rick-Astley-Never-Gonna-Give-You (1).mp3,100,audio_slider,,,,,50,
,survey-multi-choice,11,75673,0.0-11.0-0.0,10,1,2023-07-28 12:51:15,6ad40e38acdca90a181c9c1a7b1b6550,87.61.103.151,"Mozilla/5.0 (Macintosh; Intel Mac OS X 10_15_7) AppleWebKit/537.36 (KHTML, like Gecko) Chrome/114.0.0.0 Safari/537.36",Macintosh,Chrome,114.0.0.0,OS X,10_15_7,2248,,"{""familiarity"":""yes""}",multi_choice,,,,,,[0]
true,preload,12,75675,0.0-12.0,10,1,2023-07-28 12:51:15,6ad40e38acdca90a181c9c1a7b1b6550,87.61.103.151,"Mozilla/5.0 (Macintosh; Intel Mac OS X 10_15_7) AppleWebKit/537.36 (KHTML, like Gecko) Chrome/114.0.0.0 Safari/537.36",Macintosh,Chrome,114.0.0.0,OS X,10_15_7,,,,,false,[],[],[],,
,audio-slider-response,13,94816,0.0-13.0-0.0,10,1,2023-07-28 12:51:15,6ad40e38acdca90a181c9c1a7b1b6550,87.61.103.151,"Mozilla/5.0 (Macintosh; Intel Mac OS X 10_15_7) AppleWebKit/537.36 (KHTML, like Gecko) Chrome/114.0.0.0 Safari/537.36",Macintosh,Chrome,114.0.0.0,OS X,10_15_7,19075,Eric-Clapton-Tears-In-Heaven-Off.mp3,16,audio_slider,,,,,50,
,survey-multi-choice,14,96926,0.0-14.0-0.0,10,1,2023-07-28 12:51:15,6ad40e38acdca90a181c9c1a7b1b6550,87.61.103.151,"Mozilla/5.0 (Macintosh; Intel Mac OS X 10_15_7) AppleWebKit/537.36 (KHTML, like Gecko) Chrome/114.0.0.0 Safari/537.36",Macintosh,Chrome,114.0.0.0,OS X,10_15_7,2109,,"{""familiarity"":""yes""}",multi_choice,,,,,,[0]
true,preload,15,96929,0.0-15.0,10,1,2023-07-28 12:51:15,6ad40e38acdca90a181c9c1a7b1b6550,87.61.103.151,"Mozilla/5.0 (Macintosh; Intel Mac OS X 10_15_7) AppleWebKit/537.36 (KHTML, like Gecko) Chrome/114.0.0.0 Safari/537.36",Macintosh,Chrome,114.0.0.0,OS X,10_15_7,,,,,false,[],[],[],,
,audio-slider-response,16,115775,0.0-16.0-0.0,10,1,2023-07-28 12:51:15,6ad40e38acdca90a181c9c1a7b1b6550,87.61.103.151,"Mozilla/5.0 (Macintosh; Intel Mac OS X 10_15_7) AppleWebKit/537.36 (KHTML, like Gecko) Chrome/114.0.0.0 Safari/537.36",Macintosh,Chrome,114.0.0.0,OS X,10_15_7,18797,Daniel-Powter-Bad-Day-Instrument.mp3,84,audio_slider,,,,,50,
,survey-multi-choice,17,118292,0.0-17.0-0.0,10,1,2023-07-28 12:51:15,6ad40e38acdca90a181c9c1a7b1b6550,87.61.103.151,"Mozilla/5.0 (Macintosh; Intel Mac OS X 10_15_7) AppleWebKit/537.36 (KHTML, like Gecko) Chrome/114.0.0.0 Safari/537.36",Macintosh,Chrome,114.0.0.0,OS X,10_15_7,2515,,"{""familiarity"":""yes""}",multi_choice,,,,,,[0]
true,preload,18,118294,0.0-18.0,10,1,2023-07-28 12:51:15,6ad40e38acdca90a181c9c1a7b1b6550,87.61.103.151,"Mozilla/5.0 (Macintosh; Intel Mac OS X 10_15_7) AppleWebKit/537.36 (KHTML, like Gecko) Chrome/114.0.0.0 Safari/537.36",Macintosh,Chrome,114.0.0.0,OS X,10_15_7,,,,,false,[],[],[],,
,audio-slider-response,19,137347,0.0-19.0-0.0,10,1,2023-07-28 12:51:15,6ad40e38acdca90a181c9c1a7b1b6550,87.61.103.151,"Mozilla/5.0 (Macintosh; Intel Mac OS X 10_15_7) AppleWebKit/537.36 (KHTML, like Gecko) Chrome/114.0.0.0 Safari/537.36",Macintosh,Chrome,114.0.0.0,OS X,10_15_7,18994,Rick-Astley-Never-Gonna-Give-You.mp3,86,audio_slider,,,,,50,
,survey-multi-choice,20,139550,0.0-20.0-0.0,10,1,2023-07-28 12:51:15,6ad40e38acdca90a181c9c1a7b1b6550,87.61.103.151,"Mozilla/5.0 (Macintosh; Intel Mac OS X 10_15_7) AppleWebKit/537.36 (KHTML, like Gecko) Chrome/114.0.0.0 Safari/537.36",Macintosh,Chrome,114.0.0.0,OS X,10_15_7,2202,,"{""familiarity"":""yes""}",multi_choice,,,,,,[0]
true,fullscreen,21,140565,0.0-21.0,10,1,2023-07-28 12:51:15,6ad40e38acdca90a181c9c1a7b1b6550,87.61.103.151,"Mozilla/5.0 (Macintosh; Intel Mac OS X 10_15_7) AppleWebKit/537.36 (KHTML, like Gecko) Chrome/114.0.0.0 Safari/537.36",Macintosh,Chrome,114.0.0.0,OS X,10_15_7,,,,,,,,,,
,html-keyboard-response,22,141694,0.0-22.0,10,1,2023-07-28 12:51:15,6ad40e38acdca90a181c9c1a7b1b6550,87.61.103.151,"Mozilla/5.0 (Macintosh; Intel Mac OS X 10_15_7) AppleWebKit/537.36 (KHTML, like Gecko) Chrome/114.0.0.0 Safari/537.36",Macintosh,Chrome,114.0.0.0,OS X,10_15_7,1127,Thank you for your participation. You may now close the window.,meta,,,,,,,
true,fullscreen,0,2188,0.0-0.0,11,1,2023-07-28 12:52:02,6ad40e38acdca90a181c9c1a7b1b6550,77.213.212.125,"Mozilla/5.0 (Macintosh; Intel Mac OS X 10_15_7) AppleWebKit/537.36 (KHTML, like Gecko) Chrome/114.0.0.0 Safari/537.36",Macintosh,Chrome,114.0.0.0,OS X,10_15_7,,,,,,,,,,
,html-button-response,1,3104,0.0-1.0,11,1,2023-07-28 12:52:02,6ad40e38acdca90a181c9c1a7b1b6550,77.213.212.125,"Mozilla/5.0 (Macintosh; Intel Mac OS X 10_15_7) AppleWebKit/537.36 (KHTML, like Gecko) Chrome/114.0.0.0 Safari/537.36",Macintosh,Chrome,114.0.0.0,OS X,10_15_7,913,Welcome to the experiment of Group 6,0,,,,,,,
,html-button-response,2,7186,0.0-2.0,11,1,2023-07-28 12:52:02,6ad40e38acdca90a181c9c1a7b1b6550,77.213.212.125,"Mozilla/5.0 (Macintosh; Intel Mac OS X 10_15_7) AppleWebKit/537.36 (KHTML, like Gecko) Chrome/114.0.0.0 Safari/537.36",Macintosh,Chrome,114.0.0.0,OS X,10_15_7,4082,"
        <p>In this experiment, you will hear different songs. You will have to focus on your emotions during listening to it.</p>
        <p> After each track, you must indicate on a scale how happy or sad it makes you feel.</p>",0,instruction,,,,,,
true,preload,3,7187,0.0-3.0,11,1,2023-07-28 12:52:02,6ad40e38acdca90a181c9c1a7b1b6550,77.213.212.125,"Mozilla/5.0 (Macintosh; Intel Mac OS X 10_15_7) AppleWebKit/537.36 (KHTML, like Gecko) Chrome/114.0.0.0 Safari/537.36",Macintosh,Chrome,114.0.0.0,OS X,10_15_7,,,,,false,[],[],[],,
,audio-slider-response,4,24842,0.0-4.0-0.0,11,1,2023-07-28 12:52:02,6ad40e38acdca90a181c9c1a7b1b6550,77.213.212.125,"Mozilla/5.0 (Macintosh; Intel Mac OS X 10_15_7) AppleWebKit/537.36 (KHTML, like Gecko) Chrome/114.0.0.0 Safari/537.36",Macintosh,Chrome,114.0.0.0,OS X,10_15_7,17573,Eric-Clapton-Tears-In-Heaven-Ins.mp3,37,audio_slider,,,,,50,
,survey-multi-choice,5,27307,0.0-5.0-0.0,11,1,2023-07-28 12:52:02,6ad40e38acdca90a181c9c1a7b1b6550,77.213.212.125,"Mozilla/5.0 (Macintosh; Intel Mac OS X 10_15_7) AppleWebKit/537.36 (KHTML, like Gecko) Chrome/114.0.0.0 Safari/537.36",Macintosh,Chrome,114.0.0.0,OS X,10_15_7,2463,,"{""familiarity"":""yes""}",multi_choice,,,,,,[0]
true,preload,6,27309,0.0-6.0,11,1,2023-07-28 12:52:02,6ad40e38acdca90a181c9c1a7b1b6550,77.213.212.125,"Mozilla/5.0 (Macintosh; Intel Mac OS X 10_15_7) AppleWebKit/537.36 (KHTML, like Gecko) Chrome/114.0.0.0 Safari/537.36",Macintosh,Chrome,114.0.0.0,OS X,10_15_7,,,,,false,[],[],[],,
,audio-slider-response,7,52603,0.0-7.0-0.0,11,1,2023-07-28 12:52:02,6ad40e38acdca90a181c9c1a7b1b6550,77.213.212.125,"Mozilla/5.0 (Macintosh; Intel Mac OS X 10_15_7) AppleWebKit/537.36 (KHTML, like Gecko) Chrome/114.0.0.0 Safari/537.36",Macintosh,Chrome,114.0.0.0,OS X,10_15_7,25173,Daniel-Powter-Bad-Day-Official-M-[AudioTrimmer.com].mp3,34,audio_slider,,,,,50,
,survey-multi-choice,8,54449,0.0-8.0-0.0,11,1,2023-07-28 12:52:02,6ad40e38acdca90a181c9c1a7b1b6550,77.213.212.125,"Mozilla/5.0 (Macintosh; Intel Mac OS X 10_15_7) AppleWebKit/537.36 (KHTML, like Gecko) Chrome/114.0.0.0 Safari/537.36",Macintosh,Chrome,114.0.0.0,OS X,10_15_7,1844,,"{""familiarity"":""yes""}",multi_choice,,,,,,[0]
true,preload,9,54451,0.0-9.0,11,1,2023-07-28 12:52:02,6ad40e38acdca90a181c9c1a7b1b6550,77.213.212.125,"Mozilla/5.0 (Macintosh; Intel Mac OS X 10_15_7) AppleWebKit/537.36 (KHTML, like Gecko) Chrome/114.0.0.0 Safari/537.36",Macintosh,Chrome,114.0.0.0,OS X,10_15_7,,,,,false,[],[],[],,
,audio-slider-response,10,70722,0.0-10.0-0.0,11,1,2023-07-28 12:52:02,6ad40e38acdca90a181c9c1a7b1b6550,77.213.212.125,"Mozilla/5.0 (Macintosh; Intel Mac OS X 10_15_7) AppleWebKit/537.36 (KHTML, like Gecko) Chrome/114.0.0.0 Safari/537.36",Macintosh,Chrome,114.0.0.0,OS X,10_15_7,16192,Rick-Astley-Never-Gonna-Give-You (1).mp3,80,audio_slider,,,,,50,
,survey-multi-choice,11,72607,0.0-11.0-0.0,11,1,2023-07-28 12:52:02,6ad40e38acdca90a181c9c1a7b1b6550,77.213.212.125,"Mozilla/5.0 (Macintosh; Intel Mac OS X 10_15_7) AppleWebKit/537.36 (KHTML, like Gecko) Chrome/114.0.0.0 Safari/537.36",Macintosh,Chrome,114.0.0.0,OS X,10_15_7,1883,,"{""familiarity"":""yes""}",multi_choice,,,,,,[0]
true,preload,12,72609,0.0-12.0,11,1,2023-07-28 12:52:02,6ad40e38acdca90a181c9c1a7b1b6550,77.213.212.125,"Mozilla/5.0 (Macintosh; Intel Mac OS X 10_15_7) AppleWebKit/537.36 (KHTML, like Gecko) Chrome/114.0.0.0 Safari/537.36",Macintosh,Chrome,114.0.0.0,OS X,10_15_7,,,,,false,[],[],[],,
,audio-slider-response,13,89845,0.0-13.0-0.0,11,1,2023-07-28 12:52:02,6ad40e38acdca90a181c9c1a7b1b6550,77.213.212.125,"Mozilla/5.0 (Macintosh; Intel Mac OS X 10_15_7) AppleWebKit/537.36 (KHTML, like Gecko) Chrome/114.0.0.0 Safari/537.36",Macintosh,Chrome,114.0.0.0,OS X,10_15_7,17157,Eric-Clapton-Tears-In-Heaven-Off.mp3,38,audio_slider,,,,,50,
,survey-multi-choice,14,91486,0.0-14.0-0.0,11,1,2023-07-28 12:52:02,6ad40e38acdca90a181c9c1a7b1b6550,77.213.212.125,"Mozilla/5.0 (Macintosh; Intel Mac OS X 10_15_7) AppleWebKit/537.36 (KHTML, like Gecko) Chrome/114.0.0.0 Safari/537.36",Macintosh,Chrome,114.0.0.0,OS X,10_15_7,1639,,"{""familiarity"":""yes""}",multi_choice,,,,,,[0]
true,preload,15,91488,0.0-15.0,11,1,2023-07-28 12:52:02,6ad40e38acdca90a181c9c1a7b1b6550,77.213.212.125,"Mozilla/5.0 (Macintosh; Intel Mac OS X 10_15_7) AppleWebKit/537.36 (KHTML, like Gecko) Chrome/114.0.0.0 Safari/537.36",Macintosh,Chrome,114.0.0.0,OS X,10_15_7,,,,,false,[],[],[],,
,audio-slider-response,16,105084,0.0-16.0-0.0,11,1,2023-07-28 12:52:02,6ad40e38acdca90a181c9c1a7b1b6550,77.213.212.125,"Mozilla/5.0 (Macintosh; Intel Mac OS X 10_15_7) AppleWebKit/537.36 (KHTML, like Gecko) Chrome/114.0.0.0 Safari/537.36",Macintosh,Chrome,114.0.0.0,OS X,10_15_7,13536,Daniel-Powter-Bad-Day-Instrument.mp3,33,audio_slider,,,,,50,
,survey-multi-choice,17,106865,0.0-17.0-0.0,11,1,2023-07-28 12:52:02,6ad40e38acdca90a181c9c1a7b1b6550,77.213.212.125,"Mozilla/5.0 (Macintosh; Intel Mac OS X 10_15_7) AppleWebKit/537.36 (KHTML, like Gecko) Chrome/114.0.0.0 Safari/537.36",Macintosh,Chrome,114.0.0.0,OS X,10_15_7,1779,,"{""familiarity"":""yes""}",multi_choice,,,,,,[0]
true,preload,18,106868,0.0-18.0,11,1,2023-07-28 12:52:02,6ad40e38acdca90a181c9c1a7b1b6550,77.213.212.125,"Mozilla/5.0 (Macintosh; Intel Mac OS X 10_15_7) AppleWebKit/537.36 (KHTML, like Gecko) Chrome/114.0.0.0 Safari/537.36",Macintosh,Chrome,114.0.0.0,OS X,10_15_7,,,,,false,[],[],[],,
,audio-slider-response,19,123369,0.0-19.0-0.0,11,1,2023-07-28 12:52:02,6ad40e38acdca90a181c9c1a7b1b6550,77.213.212.125,"Mozilla/5.0 (Macintosh; Intel Mac OS X 10_15_7) AppleWebKit/537.36 (KHTML, like Gecko) Chrome/114.0.0.0 Safari/537.36",Macintosh,Chrome,114.0.0.0,OS X,10_15_7,16421,Rick-Astley-Never-Gonna-Give-You.mp3,80,audio_slider,,,,,50,
,survey-multi-choice,20,125109,0.0-20.0-0.0,11,1,2023-07-28 12:52:02,6ad40e38acdca90a181c9c1a7b1b6550,77.213.212.125,"Mozilla/5.0 (Macintosh; Intel Mac OS X 10_15_7) AppleWebKit/537.36 (KHTML, like Gecko) Chrome/114.0.0.0 Safari/537.36",Macintosh,Chrome,114.0.0.0,OS X,10_15_7,1738,,"{""familiarity"":""yes""}",multi_choice,,,,,,[0]
true,fullscreen,21,126121,0.0-21.0,11,1,2023-07-28 12:52:02,6ad40e38acdca90a181c9c1a7b1b6550,77.213.212.125,"Mozilla/5.0 (Macintosh; Intel Mac OS X 10_15_7) AppleWebKit/537.36 (KHTML, like Gecko) Chrome/114.0.0.0 Safari/537.36",Macintosh,Chrome,114.0.0.0,OS X,10_15_7,,,,,,,,,,
,html-keyboard-response,22,126777,0.0-22.0,11,1,2023-07-28 12:52:02,6ad40e38acdca90a181c9c1a7b1b6550,77.213.212.125,"Mozilla/5.0 (Macintosh; Intel Mac OS X 10_15_7) AppleWebKit/537.36 (KHTML, like Gecko) Chrome/114.0.0.0 Safari/537.36",Macintosh,Chrome,114.0.0.0,OS X,10_15_7,654,Thank you for your participation. You may now close the window.,meta,,,,,,,
true,fullscreen,0,2149,0.0-0.0,14,1,2023-07-28 12:52:43,6ad40e38acdca90a181c9c1a7b1b6550,82.153.30.103,"Mozilla/5.0 (Macintosh; Intel Mac OS X 10_15_7) AppleWebKit/537.36 (KHTML, like Gecko) Chrome/115.0.0.0 Safari/537.36",Macintosh,Chrome,115.0.0.0,OS X,10_15_7,,,,,,,,,,
,html-button-response,1,3383,0.0-1.0,14,1,2023-07-28 12:52:43,6ad40e38acdca90a181c9c1a7b1b6550,82.153.30.103,"Mozilla/5.0 (Macintosh; Intel Mac OS X 10_15_7) AppleWebKit/537.36 (KHTML, like Gecko) Chrome/115.0.0.0 Safari/537.36",Macintosh,Chrome,115.0.0.0,OS X,10_15_7,1230,Welcome to the experiment of Group 6,0,,,,,,,
,html-button-response,2,5431,0.0-2.0,14,1,2023-07-28 12:52:43,6ad40e38acdca90a181c9c1a7b1b6550,82.153.30.103,"Mozilla/5.0 (Macintosh; Intel Mac OS X 10_15_7) AppleWebKit/537.36 (KHTML, like Gecko) Chrome/115.0.0.0 Safari/537.36",Macintosh,Chrome,115.0.0.0,OS X,10_15_7,2047,"
        <p>In this experiment, you will hear different songs. You will have to focus on your emotions during listening to it.</p>
        <p> After each track, you must indicate on a scale how happy or sad it makes you feel.</p>",0,instruction,,,,,,
true,preload,3,5433,0.0-3.0,14,1,2023-07-28 12:52:43,6ad40e38acdca90a181c9c1a7b1b6550,82.153.30.103,"Mozilla/5.0 (Macintosh; Intel Mac OS X 10_15_7) AppleWebKit/537.36 (KHTML, like Gecko) Chrome/115.0.0.0 Safari/537.36",Macintosh,Chrome,115.0.0.0,OS X,10_15_7,,,,,false,[],[],[],,
,audio-slider-response,4,32243,0.0-4.0-0.0,14,1,2023-07-28 12:52:43,6ad40e38acdca90a181c9c1a7b1b6550,82.153.30.103,"Mozilla/5.0 (Macintosh; Intel Mac OS X 10_15_7) AppleWebKit/537.36 (KHTML, like Gecko) Chrome/115.0.0.0 Safari/537.36",Macintosh,Chrome,115.0.0.0,OS X,10_15_7,26688,Eric-Clapton-Tears-In-Heaven-Ins.mp3,100,audio_slider,,,,,50,
,survey-multi-choice,5,34732,0.0-5.0-0.0,14,1,2023-07-28 12:52:43,6ad40e38acdca90a181c9c1a7b1b6550,82.153.30.103,"Mozilla/5.0 (Macintosh; Intel Mac OS X 10_15_7) AppleWebKit/537.36 (KHTML, like Gecko) Chrome/115.0.0.0 Safari/537.36",Macintosh,Chrome,115.0.0.0,OS X,10_15_7,2486,,"{""familiarity"":""no""}",multi_choice,,,,,,[0]
true,preload,6,34737,0.0-6.0,14,1,2023-07-28 12:52:43,6ad40e38acdca90a181c9c1a7b1b6550,82.153.30.103,"Mozilla/5.0 (Macintosh; Intel Mac OS X 10_15_7) AppleWebKit/537.36 (KHTML, like Gecko) Chrome/115.0.0.0 Safari/537.36",Macintosh,Chrome,115.0.0.0,OS X,10_15_7,,,,,false,[],[],[],,
,audio-slider-response,7,84391,0.0-7.0-0.0,14,1,2023-07-28 12:52:43,6ad40e38acdca90a181c9c1a7b1b6550,82.153.30.103,"Mozilla/5.0 (Macintosh; Intel Mac OS X 10_15_7) AppleWebKit/537.36 (KHTML, like Gecko) Chrome/115.0.0.0 Safari/537.36",Macintosh,Chrome,115.0.0.0,OS X,10_15_7,49328,Daniel-Powter-Bad-Day-Official-M-[AudioTrimmer.com].mp3,100,audio_slider,,,,,50,
,survey-multi-choice,8,87112,0.0-8.0-0.0,14,1,2023-07-28 12:52:43,6ad40e38acdca90a181c9c1a7b1b6550,82.153.30.103,"Mozilla/5.0 (Macintosh; Intel Mac OS X 10_15_7) AppleWebKit/537.36 (KHTML, like Gecko) Chrome/115.0.0.0 Safari/537.36",Macintosh,Chrome,115.0.0.0,OS X,10_15_7,2718,,"{""familiarity"":""yes""}",multi_choice,,,,,,[0]
true,preload,9,87116,0.0-9.0,14,1,2023-07-28 12:52:43,6ad40e38acdca90a181c9c1a7b1b6550,82.153.30.103,"Mozilla/5.0 (Macintosh; Intel Mac OS X 10_15_7) AppleWebKit/537.36 (KHTML, like Gecko) Chrome/115.0.0.0 Safari/537.36",Macintosh,Chrome,115.0.0.0,OS X,10_15_7,,,,,false,[],[],[],,
,audio-slider-response,10,104818,0.0-10.0-0.0,14,1,2023-07-28 12:52:43,6ad40e38acdca90a181c9c1a7b1b6550,82.153.30.103,"Mozilla/5.0 (Macintosh; Intel Mac OS X 10_15_7) AppleWebKit/537.36 (KHTML, like Gecko) Chrome/115.0.0.0 Safari/537.36",Macintosh,Chrome,115.0.0.0,OS X,10_15_7,17584,Rick-Astley-Never-Gonna-Give-You (1).mp3,100,audio_slider,,,,,50,
,survey-multi-choice,11,107075,0.0-11.0-0.0,14,1,2023-07-28 12:52:43,6ad40e38acdca90a181c9c1a7b1b6550,82.153.30.103,"Mozilla/5.0 (Macintosh; Intel Mac OS X 10_15_7) AppleWebKit/537.36 (KHTML, like Gecko) Chrome/115.0.0.0 Safari/537.36",Macintosh,Chrome,115.0.0.0,OS X,10_15_7,2255,,"{""familiarity"":""yes""}",multi_choice,,,,,,[0]
true,preload,12,107079,0.0-12.0,14,1,2023-07-28 12:52:43,6ad40e38acdca90a181c9c1a7b1b6550,82.153.30.103,"Mozilla/5.0 (Macintosh; Intel Mac OS X 10_15_7) AppleWebKit/537.36 (KHTML, like Gecko) Chrome/115.0.0.0 Safari/537.36",Macintosh,Chrome,115.0.0.0,OS X,10_15_7,,,,,false,[],[],[],,
,audio-slider-response,13,126479,0.0-13.0-0.0,14,1,2023-07-28 12:52:43,6ad40e38acdca90a181c9c1a7b1b6550,82.153.30.103,"Mozilla/5.0 (Macintosh; Intel Mac OS X 10_15_7) AppleWebKit/537.36 (KHTML, like Gecko) Chrome/115.0.0.0 Safari/537.36",Macintosh,Chrome,115.0.0.0,OS X,10_15_7,19184,Eric-Clapton-Tears-In-Heaven-Off.mp3,0,audio_slider,,,,,50,
,survey-multi-choice,14,129231,0.0-14.0-0.0,14,1,2023-07-28 12:52:43,6ad40e38acdca90a181c9c1a7b1b6550,82.153.30.103,"Mozilla/5.0 (Macintosh; Intel Mac OS X 10_15_7) AppleWebKit/537.36 (KHTML, like Gecko) Chrome/115.0.0.0 Safari/537.36",Macintosh,Chrome,115.0.0.0,OS X,10_15_7,2749,,"{""familiarity"":""no""}",multi_choice,,,,,,[0]
true,preload,15,129235,0.0-15.0,14,1,2023-07-28 12:52:43,6ad40e38acdca90a181c9c1a7b1b6550,82.153.30.103,"Mozilla/5.0 (Macintosh; Intel Mac OS X 10_15_7) AppleWebKit/537.36 (KHTML, like Gecko) Chrome/115.0.0.0 Safari/537.36",Macintosh,Chrome,115.0.0.0,OS X,10_15_7,,,,,false,[],[],[],,
,audio-slider-response,16,142812,0.0-16.0-0.0,14,1,2023-07-28 12:52:43,6ad40e38acdca90a181c9c1a7b1b6550,82.153.30.103,"Mozilla/5.0 (Macintosh; Intel Mac OS X 10_15_7) AppleWebKit/537.36 (KHTML, like Gecko) Chrome/115.0.0.0 Safari/537.36",Macintosh,Chrome,115.0.0.0,OS X,10_15_7,13472,Daniel-Powter-Bad-Day-Instrument.mp3,0,audio_slider,,,,,50,
,survey-multi-choice,17,145435,0.0-17.0-0.0,14,1,2023-07-28 12:52:43,6ad40e38acdca90a181c9c1a7b1b6550,82.153.30.103,"Mozilla/5.0 (Macintosh; Intel Mac OS X 10_15_7) AppleWebKit/537.36 (KHTML, like Gecko) Chrome/115.0.0.0 Safari/537.36",Macintosh,Chrome,115.0.0.0,OS X,10_15_7,2619,,"{""familiarity"":""no""}",multi_choice,,,,,,[0]
true,preload,18,145438,0.0-18.0,14,1,2023-07-28 12:52:43,6ad40e38acdca90a181c9c1a7b1b6550,82.153.30.103,"Mozilla/5.0 (Macintosh; Intel Mac OS X 10_15_7) AppleWebKit/537.36 (KHTML, like Gecko) Chrome/115.0.0.0 Safari/537.36",Macintosh,Chrome,115.0.0.0,OS X,10_15_7,,,,,false,[],[],[],,
,audio-slider-response,19,162765,0.0-19.0-0.0,14,1,2023-07-28 12:52:43,6ad40e38acdca90a181c9c1a7b1b6550,82.153.30.103,"Mozilla/5.0 (Macintosh; Intel Mac OS X 10_15_7) AppleWebKit/537.36 (KHTML, like Gecko) Chrome/115.0.0.0 Safari/537.36",Macintosh,Chrome,115.0.0.0,OS X,10_15_7,17120,Rick-Astley-Never-Gonna-Give-You.mp3,100,audio_slider,,,,,50,
true,fullscreen,0,2342,0.0-0.0,17,1,2023-07-28 12:54:39,6ad40e38acdca90a181c9c1a7b1b6550,84.238.50.148,"Mozilla/5.0 (Windows NT 10.0; Win64; x64) AppleWebKit/537.36 (KHTML, like Gecko) Chrome/115.0.0.0 Safari/537.36",WebKit,Chrome,115.0.0.0,Windows,10.0,,,,,,,,,,
,html-button-response,1,3578,0.0-1.0,17,1,2023-07-28 12:54:39,6ad40e38acdca90a181c9c1a7b1b6550,84.238.50.148,"Mozilla/5.0 (Windows NT 10.0; Win64; x64) AppleWebKit/537.36 (KHTML, like Gecko) Chrome/115.0.0.0 Safari/537.36",WebKit,Chrome,115.0.0.0,Windows,10.0,1231,Welcome to the experiment of Group 6,0,,,,,,,
,html-button-response,2,7144,0.0-2.0,17,1,2023-07-28 12:54:39,6ad40e38acdca90a181c9c1a7b1b6550,84.238.50.148,"Mozilla/5.0 (Windows NT 10.0; Win64; x64) AppleWebKit/537.36 (KHTML, like Gecko) Chrome/115.0.0.0 Safari/537.36",WebKit,Chrome,115.0.0.0,Windows,10.0,3565,"
        <p>In this experiment, you will hear different songs. You will have to focus on your emotions during listening to it.</p>
        <p> After each track, you must indicate on a scale how happy or sad it makes you feel.</p>",0,instruction,,,,,,
true,preload,3,7146,0.0-3.0,17,1,2023-07-28 12:54:39,6ad40e38acdca90a181c9c1a7b1b6550,84.238.50.148,"Mozilla/5.0 (Windows NT 10.0; Win64; x64) AppleWebKit/537.36 (KHTML, like Gecko) Chrome/115.0.0.0 Safari/537.36",WebKit,Chrome,115.0.0.0,Windows,10.0,,,,,false,[],[],[],,
,audio-slider-response,4,39512,0.0-4.0-0.0,17,1,2023-07-28 12:54:39,6ad40e38acdca90a181c9c1a7b1b6550,84.238.50.148,"Mozilla/5.0 (Windows NT 10.0; Win64; x64) AppleWebKit/537.36 (KHTML, like Gecko) Chrome/115.0.0.0 Safari/537.36",WebKit,Chrome,115.0.0.0,Windows,10.0,32032,Eric-Clapton-Tears-In-Heaven-Ins.mp3,13,audio_slider,,,,,50,
,survey-multi-choice,5,43033,0.0-5.0-0.0,17,1,2023-07-28 12:54:39,6ad40e38acdca90a181c9c1a7b1b6550,84.238.50.148,"Mozilla/5.0 (Windows NT 10.0; Win64; x64) AppleWebKit/537.36 (KHTML, like Gecko) Chrome/115.0.0.0 Safari/537.36",WebKit,Chrome,115.0.0.0,Windows,10.0,3515,,"{""familiarity"":""no""}",multi_choice,,,,,,[0]
true,preload,6,43038,0.0-6.0,17,1,2023-07-28 12:54:39,6ad40e38acdca90a181c9c1a7b1b6550,84.238.50.148,"Mozilla/5.0 (Windows NT 10.0; Win64; x64) AppleWebKit/537.36 (KHTML, like Gecko) Chrome/115.0.0.0 Safari/537.36",WebKit,Chrome,115.0.0.0,Windows,10.0,,,,,false,[],[],[],,
,audio-slider-response,7,70052,0.0-7.0-0.0,17,1,2023-07-28 12:54:39,6ad40e38acdca90a181c9c1a7b1b6550,84.238.50.148,"Mozilla/5.0 (Windows NT 10.0; Win64; x64) AppleWebKit/537.36 (KHTML, like Gecko) Chrome/115.0.0.0 Safari/537.36",WebKit,Chrome,115.0.0.0,Windows,10.0,26656,Daniel-Powter-Bad-Day-Official-M-[AudioTrimmer.com].mp3,68,audio_slider,,,,,50,
,survey-multi-choice,8,72119,0.0-8.0-0.0,17,1,2023-07-28 12:54:39,6ad40e38acdca90a181c9c1a7b1b6550,84.238.50.148,"Mozilla/5.0 (Windows NT 10.0; Win64; x64) AppleWebKit/537.36 (KHTML, like Gecko) Chrome/115.0.0.0 Safari/537.36",WebKit,Chrome,115.0.0.0,Windows,10.0,2063,,"{""familiarity"":""yes""}",multi_choice,,,,,,[0]
true,preload,9,72124,0.0-9.0,17,1,2023-07-28 12:54:39,6ad40e38acdca90a181c9c1a7b1b6550,84.238.50.148,"Mozilla/5.0 (Windows NT 10.0; Win64; x64) AppleWebKit/537.36 (KHTML, like Gecko) Chrome/115.0.0.0 Safari/537.36",WebKit,Chrome,115.0.0.0,Windows,10.0,,,,,false,[],[],[],,
,audio-slider-response,10,94808,0.0-10.0-0.0,17,1,2023-07-28 12:54:39,6ad40e38acdca90a181c9c1a7b1b6550,84.238.50.148,"Mozilla/5.0 (Windows NT 10.0; Win64; x64) AppleWebKit/537.36 (KHTML, like Gecko) Chrome/115.0.0.0 Safari/537.36",WebKit,Chrome,115.0.0.0,Windows,10.0,22315,Rick-Astley-Never-Gonna-Give-You (1).mp3,100,audio_slider,,,,,50,
,survey-multi-choice,11,96824,0.0-11.0-0.0,17,1,2023-07-28 12:54:39,6ad40e38acdca90a181c9c1a7b1b6550,84.238.50.148,"Mozilla/5.0 (Windows NT 10.0; Win64; x64) AppleWebKit/537.36 (KHTML, like Gecko) Chrome/115.0.0.0 Safari/537.36",WebKit,Chrome,115.0.0.0,Windows,10.0,2013,,"{""familiarity"":""yes""}",multi_choice,,,,,,[0]
true,preload,12,96829,0.0-12.0,17,1,2023-07-28 12:54:39,6ad40e38acdca90a181c9c1a7b1b6550,84.238.50.148,"Mozilla/5.0 (Windows NT 10.0; Win64; x64) AppleWebKit/537.36 (KHTML, like Gecko) Chrome/115.0.0.0 Safari/537.36",WebKit,Chrome,115.0.0.0,Windows,10.0,,,,,false,[],[],[],,
,audio-slider-response,13,118575,0.0-13.0-0.0,17,1,2023-07-28 12:54:39,6ad40e38acdca90a181c9c1a7b1b6550,84.238.50.148,"Mozilla/5.0 (Windows NT 10.0; Win64; x64) AppleWebKit/537.36 (KHTML, like Gecko) Chrome/115.0.0.0 Safari/537.36",WebKit,Chrome,115.0.0.0,Windows,10.0,21397,Eric-Clapton-Tears-In-Heaven-Off.mp3,30,audio_slider,,,,,50,
,survey-multi-choice,14,120517,0.0-14.0-0.0,17,1,2023-07-28 12:54:39,6ad40e38acdca90a181c9c1a7b1b6550,84.238.50.148,"Mozilla/5.0 (Windows NT 10.0; Win64; x64) AppleWebKit/537.36 (KHTML, like Gecko) Chrome/115.0.0.0 Safari/537.36",WebKit,Chrome,115.0.0.0,Windows,10.0,1939,,"{""familiarity"":""no""}",multi_choice,,,,,,[0]
true,preload,15,120524,0.0-15.0,17,1,2023-07-28 12:54:39,6ad40e38acdca90a181c9c1a7b1b6550,84.238.50.148,"Mozilla/5.0 (Windows NT 10.0; Win64; x64) AppleWebKit/537.36 (KHTML, like Gecko) Chrome/115.0.0.0 Safari/537.36",WebKit,Chrome,115.0.0.0,Windows,10.0,,,,,false,[],[],[],,
,audio-slider-response,16,135939,0.0-16.0-0.0,17,1,2023-07-28 12:54:39,6ad40e38acdca90a181c9c1a7b1b6550,84.238.50.148,"Mozilla/5.0 (Windows NT 10.0; Win64; x64) AppleWebKit/537.36 (KHTML, like Gecko) Chrome/115.0.0.0 Safari/537.36",WebKit,Chrome,115.0.0.0,Windows,10.0,15115,Daniel-Powter-Bad-Day-Instrument.mp3,72,audio_slider,,,,,50,
,survey-multi-choice,17,137898,0.0-17.0-0.0,17,1,2023-07-28 12:54:39,6ad40e38acdca90a181c9c1a7b1b6550,84.238.50.148,"Mozilla/5.0 (Windows NT 10.0; Win64; x64) AppleWebKit/537.36 (KHTML, like Gecko) Chrome/115.0.0.0 Safari/537.36",WebKit,Chrome,115.0.0.0,Windows,10.0,1956,,"{""familiarity"":""no""}",multi_choice,,,,,,[0]
true,preload,18,137903,0.0-18.0,17,1,2023-07-28 12:54:39,6ad40e38acdca90a181c9c1a7b1b6550,84.238.50.148,"Mozilla/5.0 (Windows NT 10.0; Win64; x64) AppleWebKit/537.36 (KHTML, like Gecko) Chrome/115.0.0.0 Safari/537.36",WebKit,Chrome,115.0.0.0,Windows,10.0,,,,,false,[],[],[],,
,audio-slider-response,19,157219,0.0-19.0-0.0,17,1,2023-07-28 12:54:39,6ad40e38acdca90a181c9c1a7b1b6550,84.238.50.148,"Mozilla/5.0 (Windows NT 10.0; Win64; x64) AppleWebKit/537.36 (KHTML, like Gecko) Chrome/115.0.0.0 Safari/537.36",WebKit,Chrome,115.0.0.0,Windows,10.0,18955,Rick-Astley-Never-Gonna-Give-You.mp3,97,audio_slider,,,,,50,
true,fullscreen,0,3219,0.0-0.0,15,1,2023-07-28 12:53:32,6ad40e38acdca90a181c9c1a7b1b6550,2.106.85.206,Mozilla/5.0 (Windows NT 10.0; Win64; x64; rv:109.0) Gecko/20100101 Firefox/115.0,,Firefox,115.0,Windows,10.0,,,,,,,,,,
,html-button-response,1,4722,0.0-1.0,15,1,2023-07-28 12:53:32,6ad40e38acdca90a181c9c1a7b1b6550,2.106.85.206,Mozilla/5.0 (Windows NT 10.0; Win64; x64; rv:109.0) Gecko/20100101 Firefox/115.0,,Firefox,115.0,Windows,10.0,1501,Welcome to the experiment of Group 6,0,,,,,,,
,html-button-response,2,6407,0.0-2.0,15,1,2023-07-28 12:53:32,6ad40e38acdca90a181c9c1a7b1b6550,2.106.85.206,Mozilla/5.0 (Windows NT 10.0; Win64; x64; rv:109.0) Gecko/20100101 Firefox/115.0,,Firefox,115.0,Windows,10.0,1682,"
        <p>In this experiment, you will hear different songs. You will have to focus on your emotions during listening to it.</p>
        <p> After each track, you must indicate on a scale how happy or sad it makes you feel.</p>",0,instruction,,,,,,
true,preload,3,6409,0.0-3.0,15,1,2023-07-28 12:53:32,6ad40e38acdca90a181c9c1a7b1b6550,2.106.85.206,Mozilla/5.0 (Windows NT 10.0; Win64; x64; rv:109.0) Gecko/20100101 Firefox/115.0,,Firefox,115.0,Windows,10.0,,,,,false,[],[],[],,
,audio-slider-response,4,25271,0.0-4.0-0.0,15,1,2023-07-28 12:53:32,6ad40e38acdca90a181c9c1a7b1b6550,2.106.85.206,Mozilla/5.0 (Windows NT 10.0; Win64; x64; rv:109.0) Gecko/20100101 Firefox/115.0,,Firefox,115.0,Windows,10.0,18760,Eric-Clapton-Tears-In-Heaven-Ins.mp3,33,audio_slider,,,,,50,
,survey-multi-choice,5,29372,0.0-5.0-0.0,15,1,2023-07-28 12:53:32,6ad40e38acdca90a181c9c1a7b1b6550,2.106.85.206,Mozilla/5.0 (Windows NT 10.0; Win64; x64; rv:109.0) Gecko/20100101 Firefox/115.0,,Firefox,115.0,Windows,10.0,4097,,"{""familiarity"":""yes""}",multi_choice,,,,,,[0]
true,preload,6,29374,0.0-6.0,15,1,2023-07-28 12:53:32,6ad40e38acdca90a181c9c1a7b1b6550,2.106.85.206,Mozilla/5.0 (Windows NT 10.0; Win64; x64; rv:109.0) Gecko/20100101 Firefox/115.0,,Firefox,115.0,Windows,10.0,,,,,false,[],[],[],,
,audio-slider-response,7,56751,0.0-7.0-0.0,15,1,2023-07-28 12:53:32,6ad40e38acdca90a181c9c1a7b1b6550,2.106.85.206,Mozilla/5.0 (Windows NT 10.0; Win64; x64; rv:109.0) Gecko/20100101 Firefox/115.0,,Firefox,115.0,Windows,10.0,27240,Daniel-Powter-Bad-Day-Official-M-[AudioTrimmer.com].mp3,62,audio_slider,,,,,50,
,survey-multi-choice,8,60103,0.0-8.0-0.0,15,1,2023-07-28 12:53:32,6ad40e38acdca90a181c9c1a7b1b6550,2.106.85.206,Mozilla/5.0 (Windows NT 10.0; Win64; x64; rv:109.0) Gecko/20100101 Firefox/115.0,,Firefox,115.0,Windows,10.0,3346,,"{""familiarity"":""yes""}",multi_choice,,,,,,[0]
true,preload,9,60106,0.0-9.0,15,1,2023-07-28 12:53:32,6ad40e38acdca90a181c9c1a7b1b6550,2.106.85.206,Mozilla/5.0 (Windows NT 10.0; Win64; x64; rv:109.0) Gecko/20100101 Firefox/115.0,,Firefox,115.0,Windows,10.0,,,,,false,[],[],[],,
,audio-slider-response,10,78647,0.0-10.0-0.0,15,1,2023-07-28 12:53:32,6ad40e38acdca90a181c9c1a7b1b6550,2.106.85.206,Mozilla/5.0 (Windows NT 10.0; Win64; x64; rv:109.0) Gecko/20100101 Firefox/115.0,,Firefox,115.0,Windows,10.0,18421,Rick-Astley-Never-Gonna-Give-You (1).mp3,64,audio_slider,,,,,50,
,survey-multi-choice,11,81347,0.0-11.0-0.0,15,1,2023-07-28 12:53:32,6ad40e38acdca90a181c9c1a7b1b6550,2.106.85.206,Mozilla/5.0 (Windows NT 10.0; Win64; x64; rv:109.0) Gecko/20100101 Firefox/115.0,,Firefox,115.0,Windows,10.0,2697,,"{""familiarity"":""yes""}",multi_choice,,,,,,[0]
true,preload,12,81349,0.0-12.0,15,1,2023-07-28 12:53:32,6ad40e38acdca90a181c9c1a7b1b6550,2.106.85.206,Mozilla/5.0 (Windows NT 10.0; Win64; x64; rv:109.0) Gecko/20100101 Firefox/115.0,,Firefox,115.0,Windows,10.0,,,,,false,[],[],[],,
,audio-slider-response,13,102186,0.0-13.0-0.0,15,1,2023-07-28 12:53:32,6ad40e38acdca90a181c9c1a7b1b6550,2.106.85.206,Mozilla/5.0 (Windows NT 10.0; Win64; x64; rv:109.0) Gecko/20100101 Firefox/115.0,,Firefox,115.0,Windows,10.0,20739,Eric-Clapton-Tears-In-Heaven-Off.mp3,33,audio_slider,,,,,50,
,survey-multi-choice,14,110358,0.0-14.0-0.0,15,1,2023-07-28 12:53:32,6ad40e38acdca90a181c9c1a7b1b6550,2.106.85.206,Mozilla/5.0 (Windows NT 10.0; Win64; x64; rv:109.0) Gecko/20100101 Firefox/115.0,,Firefox,115.0,Windows,10.0,8169,,"{""familiarity"":""yes""}",multi_choice,,,,,,[0]
true,preload,15,110359,0.0-15.0,15,1,2023-07-28 12:53:32,6ad40e38acdca90a181c9c1a7b1b6550,2.106.85.206,Mozilla/5.0 (Windows NT 10.0; Win64; x64; rv:109.0) Gecko/20100101 Firefox/115.0,,Firefox,115.0,Windows,10.0,,,,,false,[],[],[],,
,audio-slider-response,16,127326,0.0-16.0-0.0,15,1,2023-07-28 12:53:32,6ad40e38acdca90a181c9c1a7b1b6550,2.106.85.206,Mozilla/5.0 (Windows NT 10.0; Win64; x64; rv:109.0) Gecko/20100101 Firefox/115.0,,Firefox,115.0,Windows,10.0,16901,Daniel-Powter-Bad-Day-Instrument.mp3,67,audio_slider,,,,,50,
,survey-multi-choice,17,130465,0.0-17.0-0.0,15,1,2023-07-28 12:53:32,6ad40e38acdca90a181c9c1a7b1b6550,2.106.85.206,Mozilla/5.0 (Windows NT 10.0; Win64; x64; rv:109.0) Gecko/20100101 Firefox/115.0,,Firefox,115.0,Windows,10.0,3136,,"{""familiarity"":""yes""}",multi_choice,,,,,,[0]
true,preload,18,130467,0.0-18.0,15,1,2023-07-28 12:53:32,6ad40e38acdca90a181c9c1a7b1b6550,2.106.85.206,Mozilla/5.0 (Windows NT 10.0; Win64; x64; rv:109.0) Gecko/20100101 Firefox/115.0,,Firefox,115.0,Windows,10.0,,,,,false,[],[],[],,
,audio-slider-response,19,149567,0.0-19.0-0.0,15,1,2023-07-28 12:53:32,6ad40e38acdca90a181c9c1a7b1b6550,2.106.85.206,Mozilla/5.0 (Windows NT 10.0; Win64; x64; rv:109.0) Gecko/20100101 Firefox/115.0,,Firefox,115.0,Windows,10.0,19000,Rick-Astley-Never-Gonna-Give-You.mp3,62,audio_slider,,,,,50,
,survey-multi-choice,20,153415,0.0-20.0-0.0,15,1,2023-07-28 12:53:32,6ad40e38acdca90a181c9c1a7b1b6550,2.106.85.206,Mozilla/5.0 (Windows NT 10.0; Win64; x64; rv:109.0) Gecko/20100101 Firefox/115.0,,Firefox,115.0,Windows,10.0,3843,,"{""familiarity"":""yes""}",multi_choice,,,,,,[0]
true,fullscreen,21,154429,0.0-21.0,15,1,2023-07-28 12:53:32,6ad40e38acdca90a181c9c1a7b1b6550,2.106.85.206,Mozilla/5.0 (Windows NT 10.0; Win64; x64; rv:109.0) Gecko/20100101 Firefox/115.0,,Firefox,115.0,Windows,10.0,,,,,,,,,,
true,fullscreen,0,2990,0.0-0.0,16,1,2023-07-28 12:54:36,6ad40e38acdca90a181c9c1a7b1b6550,2.108.90.82,"Mozilla/5.0 (Macintosh; Intel Mac OS X 10_15_7) AppleWebKit/605.1.15 (KHTML, like Gecko) Version/15.6.1 Safari/605.1.15",Macintosh,Safari,15.6.1,OS X,10_15_7,,,,,,,,,,
,html-button-response,1,4379,0.0-1.0,16,1,2023-07-28 12:54:36,6ad40e38acdca90a181c9c1a7b1b6550,2.108.90.82,"Mozilla/5.0 (Macintosh; Intel Mac OS X 10_15_7) AppleWebKit/605.1.15 (KHTML, like Gecko) Version/15.6.1 Safari/605.1.15",Macintosh,Safari,15.6.1,OS X,10_15_7,1381,Welcome to the experiment of Group 6,0,,,,,,,
,html-button-response,2,5579,0.0-2.0,16,1,2023-07-28 12:54:36,6ad40e38acdca90a181c9c1a7b1b6550,2.108.90.82,"Mozilla/5.0 (Macintosh; Intel Mac OS X 10_15_7) AppleWebKit/605.1.15 (KHTML, like Gecko) Version/15.6.1 Safari/605.1.15",Macintosh,Safari,15.6.1,OS X,10_15_7,1199,"
        <p>In this experiment, you will hear different songs. You will have to focus on your emotions during listening to it.</p>
        <p> After each track, you must indicate on a scale how happy or sad it makes you feel.</p>",0,instruction,,,,,,
true,preload,3,5583,0.0-3.0,16,1,2023-07-28 12:54:36,6ad40e38acdca90a181c9c1a7b1b6550,2.108.90.82,"Mozilla/5.0 (Macintosh; Intel Mac OS X 10_15_7) AppleWebKit/605.1.15 (KHTML, like Gecko) Version/15.6.1 Safari/605.1.15",Macintosh,Safari,15.6.1,OS X,10_15_7,,,,,false,[],[],[],,
,audio-slider-response,4,26833,0.0-4.0-0.0,16,1,2023-07-28 12:54:36,6ad40e38acdca90a181c9c1a7b1b6550,2.108.90.82,"Mozilla/5.0 (Macintosh; Intel Mac OS X 10_15_7) AppleWebKit/605.1.15 (KHTML, like Gecko) Version/15.6.1 Safari/605.1.15",Macintosh,Safari,15.6.1,OS X,10_15_7,20936,Eric-Clapton-Tears-In-Heaven-Ins.mp3,20,audio_slider,,,,,50,
,survey-multi-choice,5,29577,0.0-5.0-0.0,16,1,2023-07-28 12:54:36,6ad40e38acdca90a181c9c1a7b1b6550,2.108.90.82,"Mozilla/5.0 (Macintosh; Intel Mac OS X 10_15_7) AppleWebKit/605.1.15 (KHTML, like Gecko) Version/15.6.1 Safari/605.1.15",Macintosh,Safari,15.6.1,OS X,10_15_7,2740,,"{""familiarity"":""yes""}",multi_choice,,,,,,[0]
true,preload,6,29580,0.0-6.0,16,1,2023-07-28 12:54:36,6ad40e38acdca90a181c9c1a7b1b6550,2.108.90.82,"Mozilla/5.0 (Macintosh; Intel Mac OS X 10_15_7) AppleWebKit/605.1.15 (KHTML, like Gecko) Version/15.6.1 Safari/605.1.15",Macintosh,Safari,15.6.1,OS X,10_15_7,,,,,false,[],[],[],,
,audio-slider-response,7,57259,0.0-7.0-0.0,16,1,2023-07-28 12:54:36,6ad40e38acdca90a181c9c1a7b1b6550,2.108.90.82,"Mozilla/5.0 (Macintosh; Intel Mac OS X 10_15_7) AppleWebKit/605.1.15 (KHTML, like Gecko) Version/15.6.1 Safari/605.1.15",Macintosh,Safari,15.6.1,OS X,10_15_7,27446,Daniel-Powter-Bad-Day-Official-M-[AudioTrimmer.com].mp3,76,audio_slider,,,,,50,
,survey-multi-choice,8,60300,0.0-8.0-0.0,16,1,2023-07-28 12:54:36,6ad40e38acdca90a181c9c1a7b1b6550,2.108.90.82,"Mozilla/5.0 (Macintosh; Intel Mac OS X 10_15_7) AppleWebKit/605.1.15 (KHTML, like Gecko) Version/15.6.1 Safari/605.1.15",Macintosh,Safari,15.6.1,OS X,10_15_7,3038,,"{""familiarity"":""yes""}",multi_choice,,,,,,[0]
true,preload,9,60303,0.0-9.0,16,1,2023-07-28 12:54:36,6ad40e38acdca90a181c9c1a7b1b6550,2.108.90.82,"Mozilla/5.0 (Macintosh; Intel Mac OS X 10_15_7) AppleWebKit/605.1.15 (KHTML, like Gecko) Version/15.6.1 Safari/605.1.15",Macintosh,Safari,15.6.1,OS X,10_15_7,,,,,false,[],[],[],,
,audio-slider-response,10,78882,0.0-10.0-0.0,16,1,2023-07-28 12:54:36,6ad40e38acdca90a181c9c1a7b1b6550,2.108.90.82,"Mozilla/5.0 (Macintosh; Intel Mac OS X 10_15_7) AppleWebKit/605.1.15 (KHTML, like Gecko) Version/15.6.1 Safari/605.1.15",Macintosh,Safari,15.6.1,OS X,10_15_7,18109,Rick-Astley-Never-Gonna-Give-You (1).mp3,69,audio_slider,,,,,50,
,survey-multi-choice,11,81759,0.0-11.0-0.0,16,1,2023-07-28 12:54:36,6ad40e38acdca90a181c9c1a7b1b6550,2.108.90.82,"Mozilla/5.0 (Macintosh; Intel Mac OS X 10_15_7) AppleWebKit/605.1.15 (KHTML, like Gecko) Version/15.6.1 Safari/605.1.15",Macintosh,Safari,15.6.1,OS X,10_15_7,2875,,"{""familiarity"":""no""}",multi_choice,,,,,,[0]
true,preload,12,81762,0.0-12.0,16,1,2023-07-28 12:54:36,6ad40e38acdca90a181c9c1a7b1b6550,2.108.90.82,"Mozilla/5.0 (Macintosh; Intel Mac OS X 10_15_7) AppleWebKit/605.1.15 (KHTML, like Gecko) Version/15.6.1 Safari/605.1.15",Macintosh,Safari,15.6.1,OS X,10_15_7,,,,,false,[],[],[],,
,audio-slider-response,13,100780,0.0-13.0-0.0,16,1,2023-07-28 12:54:36,6ad40e38acdca90a181c9c1a7b1b6550,2.108.90.82,"Mozilla/5.0 (Macintosh; Intel Mac OS X 10_15_7) AppleWebKit/605.1.15 (KHTML, like Gecko) Version/15.6.1 Safari/605.1.15",Macintosh,Safari,15.6.1,OS X,10_15_7,18524,Eric-Clapton-Tears-In-Heaven-Off.mp3,10,audio_slider,,,,,50,
,survey-multi-choice,14,104295,0.0-14.0-0.0,16,1,2023-07-28 12:54:36,6ad40e38acdca90a181c9c1a7b1b6550,2.108.90.82,"Mozilla/5.0 (Macintosh; Intel Mac OS X 10_15_7) AppleWebKit/605.1.15 (KHTML, like Gecko) Version/15.6.1 Safari/605.1.15",Macintosh,Safari,15.6.1,OS X,10_15_7,3512,,"{""familiarity"":""yes""}",multi_choice,,,,,,[0]
true,preload,15,104298,0.0-15.0,16,1,2023-07-28 12:54:36,6ad40e38acdca90a181c9c1a7b1b6550,2.108.90.82,"Mozilla/5.0 (Macintosh; Intel Mac OS X 10_15_7) AppleWebKit/605.1.15 (KHTML, like Gecko) Version/15.6.1 Safari/605.1.15",Macintosh,Safari,15.6.1,OS X,10_15_7,,,,,false,[],[],[],,
,audio-slider-response,16,119119,0.0-16.0-0.0,16,1,2023-07-28 12:54:36,6ad40e38acdca90a181c9c1a7b1b6550,2.108.90.82,"Mozilla/5.0 (Macintosh; Intel Mac OS X 10_15_7) AppleWebKit/605.1.15 (KHTML, like Gecko) Version/15.6.1 Safari/605.1.15",Macintosh,Safari,15.6.1,OS X,10_15_7,14681,Daniel-Powter-Bad-Day-Instrument.mp3,36,audio_slider,,,,,50,
,survey-multi-choice,17,122143,0.0-17.0-0.0,16,1,2023-07-28 12:54:36,6ad40e38acdca90a181c9c1a7b1b6550,2.108.90.82,"Mozilla/5.0 (Macintosh; Intel Mac OS X 10_15_7) AppleWebKit/605.1.15 (KHTML, like Gecko) Version/15.6.1 Safari/605.1.15",Macintosh,Safari,15.6.1,OS X,10_15_7,3021,,"{""familiarity"":""yes""}",multi_choice,,,,,,[0]
true,preload,18,122146,0.0-18.0,16,1,2023-07-28 12:54:36,6ad40e38acdca90a181c9c1a7b1b6550,2.108.90.82,"Mozilla/5.0 (Macintosh; Intel Mac OS X 10_15_7) AppleWebKit/605.1.15 (KHTML, like Gecko) Version/15.6.1 Safari/605.1.15",Macintosh,Safari,15.6.1,OS X,10_15_7,,,,,false,[],[],[],,
,audio-slider-response,19,139642,0.0-19.0-0.0,16,1,2023-07-28 12:54:36,6ad40e38acdca90a181c9c1a7b1b6550,2.108.90.82,"Mozilla/5.0 (Macintosh; Intel Mac OS X 10_15_7) AppleWebKit/605.1.15 (KHTML, like Gecko) Version/15.6.1 Safari/605.1.15",Macintosh,Safari,15.6.1,OS X,10_15_7,17067,Rick-Astley-Never-Gonna-Give-You.mp3,77,audio_slider,,,,,50,
true,fullscreen,0,2596,0.0-0.0,19,1,2023-07-28 13:00:52,6ad40e38acdca90a181c9c1a7b1b6550,141.75.217.238,Mozilla/5.0 (Macintosh; Intel Mac OS X 10.15; rv:109.0) Gecko/20100101 Firefox/115.0,Macintosh,Firefox,115.0,OS X,10.15,,,,,,,,,,
,html-button-response,1,4386,0.0-1.0,19,1,2023-07-28 13:00:52,6ad40e38acdca90a181c9c1a7b1b6550,141.75.217.238,Mozilla/5.0 (Macintosh; Intel Mac OS X 10.15; rv:109.0) Gecko/20100101 Firefox/115.0,Macintosh,Firefox,115.0,OS X,10.15,1786,Welcome to the experiment of Group 6,0,,,,,,,
,html-button-response,2,11269,0.0-2.0,19,1,2023-07-28 13:00:52,6ad40e38acdca90a181c9c1a7b1b6550,141.75.217.238,Mozilla/5.0 (Macintosh; Intel Mac OS X 10.15; rv:109.0) Gecko/20100101 Firefox/115.0,Macintosh,Firefox,115.0,OS X,10.15,6879,"
        <p>In this experiment, you will hear different songs. You will have to focus on your emotions during listening to it.</p>
        <p> After each track, you must indicate on a scale how happy or sad it makes you feel.</p>",0,instruction,,,,,,
true,preload,3,11271,0.0-3.0,19,1,2023-07-28 13:00:52,6ad40e38acdca90a181c9c1a7b1b6550,141.75.217.238,Mozilla/5.0 (Macintosh; Intel Mac OS X 10.15; rv:109.0) Gecko/20100101 Firefox/115.0,Macintosh,Firefox,115.0,OS X,10.15,,,,,false,[],[],[],,
,audio-slider-response,4,28416,0.0-4.0-0.0,19,1,2023-07-28 13:00:52,6ad40e38acdca90a181c9c1a7b1b6550,141.75.217.238,Mozilla/5.0 (Macintosh; Intel Mac OS X 10.15; rv:109.0) Gecko/20100101 Firefox/115.0,Macintosh,Firefox,115.0,OS X,10.15,16907,Eric-Clapton-Tears-In-Heaven-Ins.mp3,55,audio_slider,,,,,50,
,survey-multi-choice,5,32251,0.0-5.0-0.0,19,1,2023-07-28 13:00:52,6ad40e38acdca90a181c9c1a7b1b6550,141.75.217.238,Mozilla/5.0 (Macintosh; Intel Mac OS X 10.15; rv:109.0) Gecko/20100101 Firefox/115.0,Macintosh,Firefox,115.0,OS X,10.15,3830,,"{""familiarity"":""yes""}",multi_choice,,,,,,[0]
true,preload,6,32252,0.0-6.0,19,1,2023-07-28 13:00:52,6ad40e38acdca90a181c9c1a7b1b6550,141.75.217.238,Mozilla/5.0 (Macintosh; Intel Mac OS X 10.15; rv:109.0) Gecko/20100101 Firefox/115.0,Macintosh,Firefox,115.0,OS X,10.15,,,,,false,[],[],[],,
,audio-slider-response,7,63829,0.0-7.0-0.0,19,1,2023-07-28 13:00:52,6ad40e38acdca90a181c9c1a7b1b6550,141.75.217.238,Mozilla/5.0 (Macintosh; Intel Mac OS X 10.15; rv:109.0) Gecko/20100101 Firefox/115.0,Macintosh,Firefox,115.0,OS X,10.15,31232,Daniel-Powter-Bad-Day-Official-M-[AudioTrimmer.com].mp3,63,audio_slider,,,,,50,
,survey-multi-choice,8,66543,0.0-8.0-0.0,19,1,2023-07-28 13:00:52,6ad40e38acdca90a181c9c1a7b1b6550,141.75.217.238,Mozilla/5.0 (Macintosh; Intel Mac OS X 10.15; rv:109.0) Gecko/20100101 Firefox/115.0,Macintosh,Firefox,115.0,OS X,10.15,2712,,"{""familiarity"":""yes""}",multi_choice,,,,,,[0]
true,preload,9,66543,0.0-9.0,19,1,2023-07-28 13:00:52,6ad40e38acdca90a181c9c1a7b1b6550,141.75.217.238,Mozilla/5.0 (Macintosh; Intel Mac OS X 10.15; rv:109.0) Gecko/20100101 Firefox/115.0,Macintosh,Firefox,115.0,OS X,10.15,,,,,false,[],[],[],,
,audio-slider-response,10,83594,0.0-10.0-0.0,19,1,2023-07-28 13:00:52,6ad40e38acdca90a181c9c1a7b1b6550,141.75.217.238,Mozilla/5.0 (Macintosh; Intel Mac OS X 10.15; rv:109.0) Gecko/20100101 Firefox/115.0,Macintosh,Firefox,115.0,OS X,10.15,16843,Rick-Astley-Never-Gonna-Give-You (1).mp3,70,audio_slider,,,,,50,
,survey-multi-choice,11,85944,0.0-11.0-0.0,19,1,2023-07-28 13:00:52,6ad40e38acdca90a181c9c1a7b1b6550,141.75.217.238,Mozilla/5.0 (Macintosh; Intel Mac OS X 10.15; rv:109.0) Gecko/20100101 Firefox/115.0,Macintosh,Firefox,115.0,OS X,10.15,2344,,"{""familiarity"":""yes""}",multi_choice,,,,,,[0]
true,preload,12,85946,0.0-12.0,19,1,2023-07-28 13:00:52,6ad40e38acdca90a181c9c1a7b1b6550,141.75.217.238,Mozilla/5.0 (Macintosh; Intel Mac OS X 10.15; rv:109.0) Gecko/20100101 Firefox/115.0,Macintosh,Firefox,115.0,OS X,10.15,,,,,false,[],[],[],,
,audio-slider-response,13,104702,0.0-13.0-0.0,19,1,2023-07-28 13:00:52,6ad40e38acdca90a181c9c1a7b1b6550,141.75.217.238,Mozilla/5.0 (Macintosh; Intel Mac OS X 10.15; rv:109.0) Gecko/20100101 Firefox/115.0,Macintosh,Firefox,115.0,OS X,10.15,18597,Eric-Clapton-Tears-In-Heaven-Off.mp3,56,audio_slider,,,,,50,
,survey-multi-choice,14,106874,0.0-14.0-0.0,19,1,2023-07-28 13:00:52,6ad40e38acdca90a181c9c1a7b1b6550,141.75.217.238,Mozilla/5.0 (Macintosh; Intel Mac OS X 10.15; rv:109.0) Gecko/20100101 Firefox/115.0,Macintosh,Firefox,115.0,OS X,10.15,2170,,"{""familiarity"":""yes""}",multi_choice,,,,,,[0]
true,preload,15,106874,0.0-15.0,19,1,2023-07-28 13:00:52,6ad40e38acdca90a181c9c1a7b1b6550,141.75.217.238,Mozilla/5.0 (Macintosh; Intel Mac OS X 10.15; rv:109.0) Gecko/20100101 Firefox/115.0,Macintosh,Firefox,115.0,OS X,10.15,,,,,false,[],[],[],,
,audio-slider-response,16,122484,0.0-16.0-0.0,19,1,2023-07-28 13:00:52,6ad40e38acdca90a181c9c1a7b1b6550,141.75.217.238,Mozilla/5.0 (Macintosh; Intel Mac OS X 10.15; rv:109.0) Gecko/20100101 Firefox/115.0,Macintosh,Firefox,115.0,OS X,10.15,15488,Daniel-Powter-Bad-Day-Instrument.mp3,54,audio_slider,,,,,50,
,survey-multi-choice,17,124954,0.0-17.0-0.0,19,1,2023-07-28 13:00:52,6ad40e38acdca90a181c9c1a7b1b6550,141.75.217.238,Mozilla/5.0 (Macintosh; Intel Mac OS X 10.15; rv:109.0) Gecko/20100101 Firefox/115.0,Macintosh,Firefox,115.0,OS X,10.15,2467,,"{""familiarity"":""no""}",multi_choice,,,,,,[0]
true,preload,18,124955,0.0-18.0,19,1,2023-07-28 13:00:52,6ad40e38acdca90a181c9c1a7b1b6550,141.75.217.238,Mozilla/5.0 (Macintosh; Intel Mac OS X 10.15; rv:109.0) Gecko/20100101 Firefox/115.0,Macintosh,Firefox,115.0,OS X,10.15,,,,,false,[],[],[],,
,audio-slider-response,19,142721,0.0-19.0-0.0,19,1,2023-07-28 13:00:52,6ad40e38acdca90a181c9c1a7b1b6550,141.75.217.238,Mozilla/5.0 (Macintosh; Intel Mac OS X 10.15; rv:109.0) Gecko/20100101 Firefox/115.0,Macintosh,Firefox,115.0,OS X,10.15,17632,Rick-Astley-Never-Gonna-Give-You.mp3,90,audio_slider,,,,,50,
,survey-multi-choice,20,145136,0.0-20.0-0.0,19,1,2023-07-28 13:00:52,6ad40e38acdca90a181c9c1a7b1b6550,141.75.217.238,Mozilla/5.0 (Macintosh; Intel Mac OS X 10.15; rv:109.0) Gecko/20100101 Firefox/115.0,Macintosh,Firefox,115.0,OS X,10.15,2411,,"{""familiarity"":""yes""}",multi_choice,,,,,,[0]
true,fullscreen,21,146142,0.0-21.0,19,1,2023-07-28 13:00:52,6ad40e38acdca90a181c9c1a7b1b6550,141.75.217.238,Mozilla/5.0 (Macintosh; Intel Mac OS X 10.15; rv:109.0) Gecko/20100101 Firefox/115.0,Macintosh,Firefox,115.0,OS X,10.15,,,,,,,,,,
true,fullscreen,0,2081,0.0-0.0,4,1,2023-07-28 12:48:43,6ad40e38acdca90a181c9c1a7b1b6550,77.241.128.85,"Mozilla/5.0 (Macintosh; Intel Mac OS X 10_15_7) AppleWebKit/605.1.15 (KHTML, like Gecko) Version/16.2 Safari/605.1.15",Macintosh,Safari,16.2,OS X,10_15_7,,,,,,,,,,
,html-button-response,1,3712,0.0-1.0,4,1,2023-07-28 12:48:43,6ad40e38acdca90a181c9c1a7b1b6550,77.241.128.85,"Mozilla/5.0 (Macintosh; Intel Mac OS X 10_15_7) AppleWebKit/605.1.15 (KHTML, like Gecko) Version/16.2 Safari/605.1.15",Macintosh,Safari,16.2,OS X,10_15_7,1627,Welcome to the experiment of Group 6,0,,,,,,,
,html-button-response,2,13520,0.0-2.0,4,1,2023-07-28 12:48:43,6ad40e38acdca90a181c9c1a7b1b6550,77.241.128.85,"Mozilla/5.0 (Macintosh; Intel Mac OS X 10_15_7) AppleWebKit/605.1.15 (KHTML, like Gecko) Version/16.2 Safari/605.1.15",Macintosh,Safari,16.2,OS X,10_15_7,9807,"
        <p>In this experiment, you will hear different songs. You will have to focus on your emotions during listening to it.</p>
        <p> After each track, you must indicate on a scale how happy or sad it makes you feel.</p>",0,instruction,,,,,,
true,preload,3,13522,0.0-3.0,4,1,2023-07-28 12:48:43,6ad40e38acdca90a181c9c1a7b1b6550,77.241.128.85,"Mozilla/5.0 (Macintosh; Intel Mac OS X 10_15_7) AppleWebKit/605.1.15 (KHTML, like Gecko) Version/16.2 Safari/605.1.15",Macintosh,Safari,16.2,OS X,10_15_7,,,,,false,[],[],[],,
,audio-slider-response,4,56141,0.0-4.0-0.0,4,1,2023-07-28 12:48:43,6ad40e38acdca90a181c9c1a7b1b6550,77.241.128.85,"Mozilla/5.0 (Macintosh; Intel Mac OS X 10_15_7) AppleWebKit/605.1.15 (KHTML, like Gecko) Version/16.2 Safari/605.1.15",Macintosh,Safari,16.2,OS X,10_15_7,42368,Eric-Clapton-Tears-In-Heaven-Ins.mp3,9,audio_slider,,,,,50,
,survey-multi-choice,5,60062,0.0-5.0-0.0,4,1,2023-07-28 12:48:43,6ad40e38acdca90a181c9c1a7b1b6550,77.241.128.85,"Mozilla/5.0 (Macintosh; Intel Mac OS X 10_15_7) AppleWebKit/605.1.15 (KHTML, like Gecko) Version/16.2 Safari/605.1.15",Macintosh,Safari,16.2,OS X,10_15_7,3918,,"{""familiarity"":""yes""}",multi_choice,,,,,,[0]
true,preload,6,60075,0.0-6.0,4,1,2023-07-28 12:48:43,6ad40e38acdca90a181c9c1a7b1b6550,77.241.128.85,"Mozilla/5.0 (Macintosh; Intel Mac OS X 10_15_7) AppleWebKit/605.1.15 (KHTML, like Gecko) Version/16.2 Safari/605.1.15",Macintosh,Safari,16.2,OS X,10_15_7,,,,,false,[],[],[],,
,audio-slider-response,7,96648,0.0-7.0-0.0,4,1,2023-07-28 12:48:43,6ad40e38acdca90a181c9c1a7b1b6550,77.241.128.85,"Mozilla/5.0 (Macintosh; Intel Mac OS X 10_15_7) AppleWebKit/605.1.15 (KHTML, like Gecko) Version/16.2 Safari/605.1.15",Macintosh,Safari,16.2,OS X,10_15_7,36256,Daniel-Powter-Bad-Day-Official-M-[AudioTrimmer.com].mp3,69,audio_slider,,,,,50,
,survey-multi-choice,8,99292,0.0-8.0-0.0,4,1,2023-07-28 12:48:43,6ad40e38acdca90a181c9c1a7b1b6550,77.241.128.85,"Mozilla/5.0 (Macintosh; Intel Mac OS X 10_15_7) AppleWebKit/605.1.15 (KHTML, like Gecko) Version/16.2 Safari/605.1.15",Macintosh,Safari,16.2,OS X,10_15_7,2642,,"{""familiarity"":""yes""}",multi_choice,,,,,,[0]
true,preload,9,99301,0.0-9.0,4,1,2023-07-28 12:48:43,6ad40e38acdca90a181c9c1a7b1b6550,77.241.128.85,"Mozilla/5.0 (Macintosh; Intel Mac OS X 10_15_7) AppleWebKit/605.1.15 (KHTML, like Gecko) Version/16.2 Safari/605.1.15",Macintosh,Safari,16.2,OS X,10_15_7,,,,,false,[],[],[],,
,audio-slider-response,10,141104,0.0-10.0-0.0,4,1,2023-07-28 12:48:43,6ad40e38acdca90a181c9c1a7b1b6550,77.241.128.85,"Mozilla/5.0 (Macintosh; Intel Mac OS X 10_15_7) AppleWebKit/605.1.15 (KHTML, like Gecko) Version/16.2 Safari/605.1.15",Macintosh,Safari,16.2,OS X,10_15_7,41536,Rick-Astley-Never-Gonna-Give-You (1).mp3,80,audio_slider,,,,,50,
,survey-multi-choice,11,143742,0.0-11.0-0.0,4,1,2023-07-28 12:48:43,6ad40e38acdca90a181c9c1a7b1b6550,77.241.128.85,"Mozilla/5.0 (Macintosh; Intel Mac OS X 10_15_7) AppleWebKit/605.1.15 (KHTML, like Gecko) Version/16.2 Safari/605.1.15",Macintosh,Safari,16.2,OS X,10_15_7,2632,,"{""familiarity"":""yes""}",multi_choice,,,,,,[0]
true,preload,12,143756,0.0-12.0,4,1,2023-07-28 12:48:43,6ad40e38acdca90a181c9c1a7b1b6550,77.241.128.85,"Mozilla/5.0 (Macintosh; Intel Mac OS X 10_15_7) AppleWebKit/605.1.15 (KHTML, like Gecko) Version/16.2 Safari/605.1.15",Macintosh,Safari,16.2,OS X,10_15_7,,,,,false,[],[],[],,
,audio-slider-response,13,169344,0.0-13.0-0.0,4,1,2023-07-28 12:48:43,6ad40e38acdca90a181c9c1a7b1b6550,77.241.128.85,"Mozilla/5.0 (Macintosh; Intel Mac OS X 10_15_7) AppleWebKit/605.1.15 (KHTML, like Gecko) Version/16.2 Safari/605.1.15",Macintosh,Safari,16.2,OS X,10_15_7,25344,Eric-Clapton-Tears-In-Heaven-Off.mp3,14,audio_slider,,,,,50,
,survey-multi-choice,14,172042,0.0-14.0-0.0,4,1,2023-07-28 12:48:43,6ad40e38acdca90a181c9c1a7b1b6550,77.241.128.85,"Mozilla/5.0 (Macintosh; Intel Mac OS X 10_15_7) AppleWebKit/605.1.15 (KHTML, like Gecko) Version/16.2 Safari/605.1.15",Macintosh,Safari,16.2,OS X,10_15_7,2696,,"{""familiarity"":""yes""}",multi_choice,,,,,,[0]
true,preload,15,172055,0.0-15.0,4,1,2023-07-28 12:48:43,6ad40e38acdca90a181c9c1a7b1b6550,77.241.128.85,"Mozilla/5.0 (Macintosh; Intel Mac OS X 10_15_7) AppleWebKit/605.1.15 (KHTML, like Gecko) Version/16.2 Safari/605.1.15",Macintosh,Safari,16.2,OS X,10_15_7,,,,,false,[],[],[],,
,audio-slider-response,16,190576,0.0-16.0-0.0,4,1,2023-07-28 12:48:43,6ad40e38acdca90a181c9c1a7b1b6550,77.241.128.85,"Mozilla/5.0 (Macintosh; Intel Mac OS X 10_15_7) AppleWebKit/605.1.15 (KHTML, like Gecko) Version/16.2 Safari/605.1.15",Macintosh,Safari,16.2,OS X,10_15_7,18272,Daniel-Powter-Bad-Day-Instrument.mp3,62,audio_slider,,,,,50,
,survey-multi-choice,17,192759,0.0-17.0-0.0,4,1,2023-07-28 12:48:43,6ad40e38acdca90a181c9c1a7b1b6550,77.241.128.85,"Mozilla/5.0 (Macintosh; Intel Mac OS X 10_15_7) AppleWebKit/605.1.15 (KHTML, like Gecko) Version/16.2 Safari/605.1.15",Macintosh,Safari,16.2,OS X,10_15_7,2181,,"{""familiarity"":""yes""}",multi_choice,,,,,,[0]
true,preload,18,192772,0.0-18.0,4,1,2023-07-28 12:48:43,6ad40e38acdca90a181c9c1a7b1b6550,77.241.128.85,"Mozilla/5.0 (Macintosh; Intel Mac OS X 10_15_7) AppleWebKit/605.1.15 (KHTML, like Gecko) Version/16.2 Safari/605.1.15",Macintosh,Safari,16.2,OS X,10_15_7,,,,,false,[],[],[],,
,audio-slider-response,19,213180,0.0-19.0-0.0,4,1,2023-07-28 12:48:43,6ad40e38acdca90a181c9c1a7b1b6550,77.241.128.85,"Mozilla/5.0 (Macintosh; Intel Mac OS X 10_15_7) AppleWebKit/605.1.15 (KHTML, like Gecko) Version/16.2 Safari/605.1.15",Macintosh,Safari,16.2,OS X,10_15_7,20160,Rick-Astley-Never-Gonna-Give-You.mp3,85,audio_slider,,,,,50,
true,fullscreen,0,2668,0.0-0.0,18,1,2023-07-28 12:55:45,6ad40e38acdca90a181c9c1a7b1b6550,84.238.86.222,"Mozilla/5.0 (Windows NT 10.0; Win64; x64) AppleWebKit/537.36 (KHTML, like Gecko) Chrome/115.0.0.0 Safari/537.36",WebKit,Chrome,115.0.0.0,Windows,10.0,,,,,,,,,,
,html-button-response,1,3878,0.0-1.0,18,1,2023-07-28 12:55:45,6ad40e38acdca90a181c9c1a7b1b6550,84.238.86.222,"Mozilla/5.0 (Windows NT 10.0; Win64; x64) AppleWebKit/537.36 (KHTML, like Gecko) Chrome/115.0.0.0 Safari/537.36",WebKit,Chrome,115.0.0.0,Windows,10.0,1207,Welcome to the experiment of Group 6,0,,,,,,,
,html-button-response,2,5503,0.0-2.0,18,1,2023-07-28 12:55:45,6ad40e38acdca90a181c9c1a7b1b6550,84.238.86.222,"Mozilla/5.0 (Windows NT 10.0; Win64; x64) AppleWebKit/537.36 (KHTML, like Gecko) Chrome/115.0.0.0 Safari/537.36",WebKit,Chrome,115.0.0.0,Windows,10.0,1625,"
        <p>In this experiment, you will hear different songs. You will have to focus on your emotions during listening to it.</p>
        <p> After each track, you must indicate on a scale how happy or sad it makes you feel.</p>",0,instruction,,,,,,
true,preload,3,5504,0.0-3.0,18,1,2023-07-28 12:55:45,6ad40e38acdca90a181c9c1a7b1b6550,84.238.86.222,"Mozilla/5.0 (Windows NT 10.0; Win64; x64) AppleWebKit/537.36 (KHTML, like Gecko) Chrome/115.0.0.0 Safari/537.36",WebKit,Chrome,115.0.0.0,Windows,10.0,,,,,false,[],[],[],,
,audio-slider-response,4,25612,0.0-4.0-0.0,18,1,2023-07-28 12:55:45,6ad40e38acdca90a181c9c1a7b1b6550,84.238.86.222,"Mozilla/5.0 (Windows NT 10.0; Win64; x64) AppleWebKit/537.36 (KHTML, like Gecko) Chrome/115.0.0.0 Safari/537.36",WebKit,Chrome,115.0.0.0,Windows,10.0,19989,Eric-Clapton-Tears-In-Heaven-Ins.mp3,76,audio_slider,,,,,50,
,survey-multi-choice,5,29919,0.0-5.0-0.0,18,1,2023-07-28 12:55:45,6ad40e38acdca90a181c9c1a7b1b6550,84.238.86.222,"Mozilla/5.0 (Windows NT 10.0; Win64; x64) AppleWebKit/537.36 (KHTML, like Gecko) Chrome/115.0.0.0 Safari/537.36",WebKit,Chrome,115.0.0.0,Windows,10.0,4305,,"{""familiarity"":""no""}",multi_choice,,,,,,[0]
true,preload,6,29921,0.0-6.0,18,1,2023-07-28 12:55:45,6ad40e38acdca90a181c9c1a7b1b6550,84.238.86.222,"Mozilla/5.0 (Windows NT 10.0; Win64; x64) AppleWebKit/537.36 (KHTML, like Gecko) Chrome/115.0.0.0 Safari/537.36",WebKit,Chrome,115.0.0.0,Windows,10.0,,,,,false,[],[],[],,
,audio-slider-response,7,56239,0.0-7.0-0.0,18,1,2023-07-28 12:55:45,6ad40e38acdca90a181c9c1a7b1b6550,84.238.86.222,"Mozilla/5.0 (Windows NT 10.0; Win64; x64) AppleWebKit/537.36 (KHTML, like Gecko) Chrome/115.0.0.0 Safari/537.36",WebKit,Chrome,115.0.0.0,Windows,10.0,26171,Daniel-Powter-Bad-Day-Official-M-[AudioTrimmer.com].mp3,78,audio_slider,,,,,50,
,survey-multi-choice,8,59917,0.0-8.0-0.0,18,1,2023-07-28 12:55:45,6ad40e38acdca90a181c9c1a7b1b6550,84.238.86.222,"Mozilla/5.0 (Windows NT 10.0; Win64; x64) AppleWebKit/537.36 (KHTML, like Gecko) Chrome/115.0.0.0 Safari/537.36",WebKit,Chrome,115.0.0.0,Windows,10.0,3677,,"{""familiarity"":""yes""}",multi_choice,,,,,,[0]
true,preload,9,59919,0.0-9.0,18,1,2023-07-28 12:55:45,6ad40e38acdca90a181c9c1a7b1b6550,84.238.86.222,"Mozilla/5.0 (Windows NT 10.0; Win64; x64) AppleWebKit/537.36 (KHTML, like Gecko) Chrome/115.0.0.0 Safari/537.36",WebKit,Chrome,115.0.0.0,Windows,10.0,,,,,false,[],[],[],,
,audio-slider-response,10,81781,0.0-10.0-0.0,18,1,2023-07-28 12:55:45,6ad40e38acdca90a181c9c1a7b1b6550,84.238.86.222,"Mozilla/5.0 (Windows NT 10.0; Win64; x64) AppleWebKit/537.36 (KHTML, like Gecko) Chrome/115.0.0.0 Safari/537.36",WebKit,Chrome,115.0.0.0,Windows,10.0,21771,Rick-Astley-Never-Gonna-Give-You (1).mp3,78,audio_slider,,,,,50,
,survey-multi-choice,11,84126,0.0-11.0-0.0,18,1,2023-07-28 12:55:45,6ad40e38acdca90a181c9c1a7b1b6550,84.238.86.222,"Mozilla/5.0 (Windows NT 10.0; Win64; x64) AppleWebKit/537.36 (KHTML, like Gecko) Chrome/115.0.0.0 Safari/537.36",WebKit,Chrome,115.0.0.0,Windows,10.0,2345,,"{""familiarity"":""yes""}",multi_choice,,,,,,[0]
true,preload,12,84129,0.0-12.0,18,1,2023-07-28 12:55:45,6ad40e38acdca90a181c9c1a7b1b6550,84.238.86.222,"Mozilla/5.0 (Windows NT 10.0; Win64; x64) AppleWebKit/537.36 (KHTML, like Gecko) Chrome/115.0.0.0 Safari/537.36",WebKit,Chrome,115.0.0.0,Windows,10.0,,,,,false,[],[],[],,
,audio-slider-response,13,103328,0.0-13.0-0.0,18,1,2023-07-28 12:55:45,6ad40e38acdca90a181c9c1a7b1b6550,84.238.86.222,"Mozilla/5.0 (Windows NT 10.0; Win64; x64) AppleWebKit/537.36 (KHTML, like Gecko) Chrome/115.0.0.0 Safari/537.36",WebKit,Chrome,115.0.0.0,Windows,10.0,19011,Eric-Clapton-Tears-In-Heaven-Off.mp3,32,audio_slider,,,,,50,
,survey-multi-choice,14,107390,0.0-14.0-0.0,18,1,2023-07-28 12:55:45,6ad40e38acdca90a181c9c1a7b1b6550,84.238.86.222,"Mozilla/5.0 (Windows NT 10.0; Win64; x64) AppleWebKit/537.36 (KHTML, like Gecko) Chrome/115.0.0.0 Safari/537.36",WebKit,Chrome,115.0.0.0,Windows,10.0,4061,,"{""familiarity"":""no""}",multi_choice,,,,,,[0]
true,preload,15,107392,0.0-15.0,18,1,2023-07-28 12:55:45,6ad40e38acdca90a181c9c1a7b1b6550,84.238.86.222,"Mozilla/5.0 (Windows NT 10.0; Win64; x64) AppleWebKit/537.36 (KHTML, like Gecko) Chrome/115.0.0.0 Safari/537.36",WebKit,Chrome,115.0.0.0,Windows,10.0,,,,,false,[],[],[],,
,audio-slider-response,16,151539,0.0-16.0-0.0,18,1,2023-07-28 12:55:45,6ad40e38acdca90a181c9c1a7b1b6550,84.238.86.222,"Mozilla/5.0 (Windows NT 10.0; Win64; x64) AppleWebKit/537.36 (KHTML, like Gecko) Chrome/115.0.0.0 Safari/537.36",WebKit,Chrome,115.0.0.0,Windows,10.0,44080,Daniel-Powter-Bad-Day-Instrument.mp3,59,audio_slider,,,,,50,
,survey-multi-choice,17,154639,0.0-17.0-0.0,18,1,2023-07-28 12:55:45,6ad40e38acdca90a181c9c1a7b1b6550,84.238.86.222,"Mozilla/5.0 (Windows NT 10.0; Win64; x64) AppleWebKit/537.36 (KHTML, like Gecko) Chrome/115.0.0.0 Safari/537.36",WebKit,Chrome,115.0.0.0,Windows,10.0,3099,,"{""familiarity"":""no""}",multi_choice,,,,,,[0]
true,preload,18,154641,0.0-18.0,18,1,2023-07-28 12:55:45,6ad40e38acdca90a181c9c1a7b1b6550,84.238.86.222,"Mozilla/5.0 (Windows NT 10.0; Win64; x64) AppleWebKit/537.36 (KHTML, like Gecko) Chrome/115.0.0.0 Safari/537.36",WebKit,Chrome,115.0.0.0,Windows,10.0,,,,,false,[],[],[],,
,audio-slider-response,19,172374,0.0-19.0-0.0,18,1,2023-07-28 12:55:45,6ad40e38acdca90a181c9c1a7b1b6550,84.238.86.222,"Mozilla/5.0 (Windows NT 10.0; Win64; x64) AppleWebKit/537.36 (KHTML, like Gecko) Chrome/115.0.0.0 Safari/537.36",WebKit,Chrome,115.0.0.0,Windows,10.0,17611,Rick-Astley-Never-Gonna-Give-You.mp3,84,audio_slider,,,,,50,
true,fullscreen,0,2993,0.0-0.0,2,1,2023-07-28 12:39:21,6ad40e38acdca90a181c9c1a7b1b6550,130.225.14.74,"Mozilla/5.0 (Windows NT 10.0; Win64; x64) AppleWebKit/537.36 (KHTML, like Gecko) Chrome/115.0.0.0 Safari/537.36",WebKit,Chrome,115.0.0.0,Windows,10.0,,,,,,,,,,
,html-button-response,1,5173,0.0-1.0,2,1,2023-07-28 12:39:21,6ad40e38acdca90a181c9c1a7b1b6550,130.225.14.74,"Mozilla/5.0 (Windows NT 10.0; Win64; x64) AppleWebKit/537.36 (KHTML, like Gecko) Chrome/115.0.0.0 Safari/537.36",WebKit,Chrome,115.0.0.0,Windows,10.0,2179,Welcome to the experiment of Group 6,0,,,,,,,
,html-button-response,2,7682,0.0-2.0,2,1,2023-07-28 12:39:21,6ad40e38acdca90a181c9c1a7b1b6550,130.225.14.74,"Mozilla/5.0 (Windows NT 10.0; Win64; x64) AppleWebKit/537.36 (KHTML, like Gecko) Chrome/115.0.0.0 Safari/537.36",WebKit,Chrome,115.0.0.0,Windows,10.0,2508,"
        <p>In this experiment, you will hear different songs. You will have to focus on your emotions during listening to it.</p>
        <p> After each track, you must indicate on a scale how happy or sad it makes you feel.</p>",0,instruction,,,,,,
true,preload,3,7683,0.0-3.0,2,1,2023-07-28 12:39:21,6ad40e38acdca90a181c9c1a7b1b6550,130.225.14.74,"Mozilla/5.0 (Windows NT 10.0; Win64; x64) AppleWebKit/537.36 (KHTML, like Gecko) Chrome/115.0.0.0 Safari/537.36",WebKit,Chrome,115.0.0.0,Windows,10.0,,,,,false,[],[],[],,
,audio-slider-response,4,32214,0.0-4.0-0.0,2,1,2023-07-28 12:39:21,6ad40e38acdca90a181c9c1a7b1b6550,130.225.14.74,"Mozilla/5.0 (Windows NT 10.0; Win64; x64) AppleWebKit/537.36 (KHTML, like Gecko) Chrome/115.0.0.0 Safari/537.36",WebKit,Chrome,115.0.0.0,Windows,10.0,24309,Eric-Clapton-Tears-In-Heaven-Ins.mp3,85,audio_slider,,,,,50,
,survey-multi-choice,5,35147,0.0-5.0-0.0,2,1,2023-07-28 12:39:21,6ad40e38acdca90a181c9c1a7b1b6550,130.225.14.74,"Mozilla/5.0 (Windows NT 10.0; Win64; x64) AppleWebKit/537.36 (KHTML, like Gecko) Chrome/115.0.0.0 Safari/537.36",WebKit,Chrome,115.0.0.0,Windows,10.0,2932,,"{""familiarity"":""yes""}",multi_choice,,,,,,[0]
true,preload,6,35150,0.0-6.0,2,1,2023-07-28 12:39:21,6ad40e38acdca90a181c9c1a7b1b6550,130.225.14.74,"Mozilla/5.0 (Windows NT 10.0; Win64; x64) AppleWebKit/537.36 (KHTML, like Gecko) Chrome/115.0.0.0 Safari/537.36",WebKit,Chrome,115.0.0.0,Windows,10.0,,,,,false,[],[],[],,
,audio-slider-response,7,63100,0.0-7.0-0.0,2,1,2023-07-28 12:39:21,6ad40e38acdca90a181c9c1a7b1b6550,130.225.14.74,"Mozilla/5.0 (Windows NT 10.0; Win64; x64) AppleWebKit/537.36 (KHTML, like Gecko) Chrome/115.0.0.0 Safari/537.36",WebKit,Chrome,115.0.0.0,Windows,10.0,27669,Daniel-Powter-Bad-Day-Official-M-[AudioTrimmer.com].mp3,88,audio_slider,,,,,50,
,survey-multi-choice,8,65167,0.0-8.0-0.0,2,1,2023-07-28 12:39:21,6ad40e38acdca90a181c9c1a7b1b6550,130.225.14.74,"Mozilla/5.0 (Windows NT 10.0; Win64; x64) AppleWebKit/537.36 (KHTML, like Gecko) Chrome/115.0.0.0 Safari/537.36",WebKit,Chrome,115.0.0.0,Windows,10.0,2066,,"{""familiarity"":""yes""}",multi_choice,,,,,,[0]
true,preload,9,65169,0.0-9.0,2,1,2023-07-28 12:39:21,6ad40e38acdca90a181c9c1a7b1b6550,130.225.14.74,"Mozilla/5.0 (Windows NT 10.0; Win64; x64) AppleWebKit/537.36 (KHTML, like Gecko) Chrome/115.0.0.0 Safari/537.36",WebKit,Chrome,115.0.0.0,Windows,10.0,,,,,false,[],[],[],,
,audio-slider-response,10,95224,0.0-10.0-0.0,2,1,2023-07-28 12:39:21,6ad40e38acdca90a181c9c1a7b1b6550,130.225.14.74,"Mozilla/5.0 (Windows NT 10.0; Win64; x64) AppleWebKit/537.36 (KHTML, like Gecko) Chrome/115.0.0.0 Safari/537.36",WebKit,Chrome,115.0.0.0,Windows,10.0,29800,Rick-Astley-Never-Gonna-Give-You (1).mp3,93,audio_slider,,,,,50,
,survey-multi-choice,11,104857,0.0-11.0-0.0,2,1,2023-07-28 12:39:21,6ad40e38acdca90a181c9c1a7b1b6550,130.225.14.74,"Mozilla/5.0 (Windows NT 10.0; Win64; x64) AppleWebKit/537.36 (KHTML, like Gecko) Chrome/115.0.0.0 Safari/537.36",WebKit,Chrome,115.0.0.0,Windows,10.0,9632,,"{""familiarity"":""yes""}",multi_choice,,,,,,[0]
true,preload,12,104859,0.0-12.0,2,1,2023-07-28 12:39:21,6ad40e38acdca90a181c9c1a7b1b6550,130.225.14.74,"Mozilla/5.0 (Windows NT 10.0; Win64; x64) AppleWebKit/537.36 (KHTML, like Gecko) Chrome/115.0.0.0 Safari/537.36",WebKit,Chrome,115.0.0.0,Windows,10.0,,,,,false,[],[],[],,
,audio-slider-response,13,124175,0.0-13.0-0.0,2,1,2023-07-28 12:39:21,6ad40e38acdca90a181c9c1a7b1b6550,130.225.14.74,"Mozilla/5.0 (Windows NT 10.0; Win64; x64) AppleWebKit/537.36 (KHTML, like Gecko) Chrome/115.0.0.0 Safari/537.36",WebKit,Chrome,115.0.0.0,Windows,10.0,18971,Eric-Clapton-Tears-In-Heaven-Off.mp3,90,audio_slider,,,,,50,
,survey-multi-choice,14,126711,0.0-14.0-0.0,2,1,2023-07-28 12:39:21,6ad40e38acdca90a181c9c1a7b1b6550,130.225.14.74,"Mozilla/5.0 (Windows NT 10.0; Win64; x64) AppleWebKit/537.36 (KHTML, like Gecko) Chrome/115.0.0.0 Safari/537.36",WebKit,Chrome,115.0.0.0,Windows,10.0,2535,,"{""familiarity"":""yes""}",multi_choice,,,,,,[0]
true,preload,15,126713,0.0-15.0,2,1,2023-07-28 12:39:21,6ad40e38acdca90a181c9c1a7b1b6550,130.225.14.74,"Mozilla/5.0 (Windows NT 10.0; Win64; x64) AppleWebKit/537.36 (KHTML, like Gecko) Chrome/115.0.0.0 Safari/537.36",WebKit,Chrome,115.0.0.0,Windows,10.0,,,,,false,[],[],[],,
,audio-slider-response,16,202480,0.0-16.0-0.0,2,1,2023-07-28 12:39:21,6ad40e38acdca90a181c9c1a7b1b6550,130.225.14.74,"Mozilla/5.0 (Windows NT 10.0; Win64; x64) AppleWebKit/537.36 (KHTML, like Gecko) Chrome/115.0.0.0 Safari/537.36",WebKit,Chrome,115.0.0.0,Windows,10.0,75600,Daniel-Powter-Bad-Day-Instrument.mp3,89,audio_slider,,,,,50,
,survey-multi-choice,17,204782,0.0-17.0-0.0,2,1,2023-07-28 12:39:21,6ad40e38acdca90a181c9c1a7b1b6550,130.225.14.74,"Mozilla/5.0 (Windows NT 10.0; Win64; x64) AppleWebKit/537.36 (KHTML, like Gecko) Chrome/115.0.0.0 Safari/537.36",WebKit,Chrome,115.0.0.0,Windows,10.0,2301,,"{""familiarity"":""yes""}",multi_choice,,,,,,[0]
true,preload,18,204785,0.0-18.0,2,1,2023-07-28 12:39:21,6ad40e38acdca90a181c9c1a7b1b6550,130.225.14.74,"Mozilla/5.0 (Windows NT 10.0; Win64; x64) AppleWebKit/537.36 (KHTML, like Gecko) Chrome/115.0.0.0 Safari/537.36",WebKit,Chrome,115.0.0.0,Windows,10.0,,,,,false,[],[],[],,
,audio-slider-response,19,223581,0.0-19.0-0.0,2,1,2023-07-28 12:39:21,6ad40e38acdca90a181c9c1a7b1b6550,130.225.14.74,"Mozilla/5.0 (Windows NT 10.0; Win64; x64) AppleWebKit/537.36 (KHTML, like Gecko) Chrome/115.0.0.0 Safari/537.36",WebKit,Chrome,115.0.0.0,Windows,10.0,18600,Rick-Astley-Never-Gonna-Give-You.mp3,88,audio_slider,,,,,50,
,survey-multi-choice,20,225542,0.0-20.0-0.0,2,1,2023-07-28 12:39:21,6ad40e38acdca90a181c9c1a7b1b6550,130.225.14.74,"Mozilla/5.0 (Windows NT 10.0; Win64; x64) AppleWebKit/537.36 (KHTML, like Gecko) Chrome/115.0.0.0 Safari/537.36",WebKit,Chrome,115.0.0.0,Windows,10.0,1960,,"{""familiarity"":""yes""}",multi_choice,,,,,,[0]
true,fullscreen,21,226558,0.0-21.0,2,1,2023-07-28 12:39:21,6ad40e38acdca90a181c9c1a7b1b6550,130.225.14.74,"Mozilla/5.0 (Windows NT 10.0; Win64; x64) AppleWebKit/537.36 (KHTML, like Gecko) Chrome/115.0.0.0 Safari/537.36",WebKit,Chrome,115.0.0.0,Windows,10.0,,,,,,,,,,
true,fullscreen,0,2250,0.0-0.0,13,1,2023-07-28 12:52:32,6ad40e38acdca90a181c9c1a7b1b6550,151.230.146.118,"Mozilla/5.0 (Macintosh; Intel Mac OS X 10_15_7) AppleWebKit/537.36 (KHTML, like Gecko) Chrome/113.0.0.0 Safari/537.36",Macintosh,Chrome,113.0.0.0,OS X,10_15_7,,,,,,,,,,
,html-button-response,1,3268,0.0-1.0,13,1,2023-07-28 12:52:32,6ad40e38acdca90a181c9c1a7b1b6550,151.230.146.118,"Mozilla/5.0 (Macintosh; Intel Mac OS X 10_15_7) AppleWebKit/537.36 (KHTML, like Gecko) Chrome/113.0.0.0 Safari/537.36",Macintosh,Chrome,113.0.0.0,OS X,10_15_7,1017,Welcome to the experiment of Group 6,0,,,,,,,
,html-button-response,2,5431,0.0-2.0,13,1,2023-07-28 12:52:32,6ad40e38acdca90a181c9c1a7b1b6550,151.230.146.118,"Mozilla/5.0 (Macintosh; Intel Mac OS X 10_15_7) AppleWebKit/537.36 (KHTML, like Gecko) Chrome/113.0.0.0 Safari/537.36",Macintosh,Chrome,113.0.0.0,OS X,10_15_7,2162,"
        <p>In this experiment, you will hear different songs. You will have to focus on your emotions during listening to it.</p>
        <p> After each track, you must indicate on a scale how happy or sad it makes you feel.</p>",0,instruction,,,,,,
true,preload,3,5432,0.0-3.0,13,1,2023-07-28 12:52:32,6ad40e38acdca90a181c9c1a7b1b6550,151.230.146.118,"Mozilla/5.0 (Macintosh; Intel Mac OS X 10_15_7) AppleWebKit/537.36 (KHTML, like Gecko) Chrome/113.0.0.0 Safari/537.36",Macintosh,Chrome,113.0.0.0,OS X,10_15_7,,,,,false,[],[],[],,
,audio-slider-response,4,24075,0.0-4.0-0.0,13,1,2023-07-28 12:52:32,6ad40e38acdca90a181c9c1a7b1b6550,151.230.146.118,"Mozilla/5.0 (Macintosh; Intel Mac OS X 10_15_7) AppleWebKit/537.36 (KHTML, like Gecko) Chrome/113.0.0.0 Safari/537.36",Macintosh,Chrome,113.0.0.0,OS X,10_15_7,18437,Eric-Clapton-Tears-In-Heaven-Ins.mp3,76,audio_slider,,,,,50,
,survey-multi-choice,5,26673,0.0-5.0-0.0,13,1,2023-07-28 12:52:32,6ad40e38acdca90a181c9c1a7b1b6550,151.230.146.118,"Mozilla/5.0 (Macintosh; Intel Mac OS X 10_15_7) AppleWebKit/537.36 (KHTML, like Gecko) Chrome/113.0.0.0 Safari/537.36",Macintosh,Chrome,113.0.0.0,OS X,10_15_7,2595,,"{""familiarity"":""yes""}",multi_choice,,,,,,[0]
true,preload,6,26676,0.0-6.0,13,1,2023-07-28 12:52:32,6ad40e38acdca90a181c9c1a7b1b6550,151.230.146.118,"Mozilla/5.0 (Macintosh; Intel Mac OS X 10_15_7) AppleWebKit/537.36 (KHTML, like Gecko) Chrome/113.0.0.0 Safari/537.36",Macintosh,Chrome,113.0.0.0,OS X,10_15_7,,,,,false,[],[],[],,
,audio-slider-response,7,53535,0.0-7.0-0.0,13,1,2023-07-28 12:52:32,6ad40e38acdca90a181c9c1a7b1b6550,151.230.146.118,"Mozilla/5.0 (Macintosh; Intel Mac OS X 10_15_7) AppleWebKit/537.36 (KHTML, like Gecko) Chrome/113.0.0.0 Safari/537.36",Macintosh,Chrome,113.0.0.0,OS X,10_15_7,26639,Daniel-Powter-Bad-Day-Official-M-[AudioTrimmer.com].mp3,86,audio_slider,,,,,50,
,survey-multi-choice,8,56207,0.0-8.0-0.0,13,1,2023-07-28 12:52:32,6ad40e38acdca90a181c9c1a7b1b6550,151.230.146.118,"Mozilla/5.0 (Macintosh; Intel Mac OS X 10_15_7) AppleWebKit/537.36 (KHTML, like Gecko) Chrome/113.0.0.0 Safari/537.36",Macintosh,Chrome,113.0.0.0,OS X,10_15_7,2670,,"{""familiarity"":""yes""}",multi_choice,,,,,,[0]
true,preload,9,56211,0.0-9.0,13,1,2023-07-28 12:52:32,6ad40e38acdca90a181c9c1a7b1b6550,151.230.146.118,"Mozilla/5.0 (Macintosh; Intel Mac OS X 10_15_7) AppleWebKit/537.36 (KHTML, like Gecko) Chrome/113.0.0.0 Safari/537.36",Macintosh,Chrome,113.0.0.0,OS X,10_15_7,,,,,false,[],[],[],,
,audio-slider-response,10,73367,0.0-10.0-0.0,13,1,2023-07-28 12:52:32,6ad40e38acdca90a181c9c1a7b1b6550,151.230.146.118,"Mozilla/5.0 (Macintosh; Intel Mac OS X 10_15_7) AppleWebKit/537.36 (KHTML, like Gecko) Chrome/113.0.0.0 Safari/537.36",Macintosh,Chrome,113.0.0.0,OS X,10_15_7,16980,Rick-Astley-Never-Gonna-Give-You (1).mp3,100,audio_slider,,,,,50,
,survey-multi-choice,11,75569,0.0-11.0-0.0,13,1,2023-07-28 12:52:32,6ad40e38acdca90a181c9c1a7b1b6550,151.230.146.118,"Mozilla/5.0 (Macintosh; Intel Mac OS X 10_15_7) AppleWebKit/537.36 (KHTML, like Gecko) Chrome/113.0.0.0 Safari/537.36",Macintosh,Chrome,113.0.0.0,OS X,10_15_7,2201,,"{""familiarity"":""yes""}",multi_choice,,,,,,[0]
true,preload,12,75572,0.0-12.0,13,1,2023-07-28 12:52:32,6ad40e38acdca90a181c9c1a7b1b6550,151.230.146.118,"Mozilla/5.0 (Macintosh; Intel Mac OS X 10_15_7) AppleWebKit/537.36 (KHTML, like Gecko) Chrome/113.0.0.0 Safari/537.36",Macintosh,Chrome,113.0.0.0,OS X,10_15_7,,,,,false,[],[],[],,
,audio-slider-response,13,94963,0.0-13.0-0.0,13,1,2023-07-28 12:52:32,6ad40e38acdca90a181c9c1a7b1b6550,151.230.146.118,"Mozilla/5.0 (Macintosh; Intel Mac OS X 10_15_7) AppleWebKit/537.36 (KHTML, like Gecko) Chrome/113.0.0.0 Safari/537.36",Macintosh,Chrome,113.0.0.0,OS X,10_15_7,19168,Eric-Clapton-Tears-In-Heaven-Off.mp3,38,audio_slider,,,,,50,
,survey-multi-choice,14,96886,0.0-14.0-0.0,13,1,2023-07-28 12:52:32,6ad40e38acdca90a181c9c1a7b1b6550,151.230.146.118,"Mozilla/5.0 (Macintosh; Intel Mac OS X 10_15_7) AppleWebKit/537.36 (KHTML, like Gecko) Chrome/113.0.0.0 Safari/537.36",Macintosh,Chrome,113.0.0.0,OS X,10_15_7,1922,,"{""familiarity"":""yes""}",multi_choice,,,,,,[0]
true,preload,15,96890,0.0-15.0,13,1,2023-07-28 12:52:32,6ad40e38acdca90a181c9c1a7b1b6550,151.230.146.118,"Mozilla/5.0 (Macintosh; Intel Mac OS X 10_15_7) AppleWebKit/537.36 (KHTML, like Gecko) Chrome/113.0.0.0 Safari/537.36",Macintosh,Chrome,113.0.0.0,OS X,10_15_7,,,,,false,[],[],[],,
,audio-slider-response,16,113222,0.0-16.0-0.0,13,1,2023-07-28 12:52:32,6ad40e38acdca90a181c9c1a7b1b6550,151.230.146.118,"Mozilla/5.0 (Macintosh; Intel Mac OS X 10_15_7) AppleWebKit/537.36 (KHTML, like Gecko) Chrome/113.0.0.0 Safari/537.36",Macintosh,Chrome,113.0.0.0,OS X,10_15_7,16132,Daniel-Powter-Bad-Day-Instrument.mp3,51,audio_slider,,,,,50,
,survey-multi-choice,17,115771,0.0-17.0-0.0,13,1,2023-07-28 12:52:32,6ad40e38acdca90a181c9c1a7b1b6550,151.230.146.118,"Mozilla/5.0 (Macintosh; Intel Mac OS X 10_15_7) AppleWebKit/537.36 (KHTML, like Gecko) Chrome/113.0.0.0 Safari/537.36",Macintosh,Chrome,113.0.0.0,OS X,10_15_7,2547,,"{""familiarity"":""no""}",multi_choice,,,,,,[0]
true,preload,18,115774,0.0-18.0,13,1,2023-07-28 12:52:32,6ad40e38acdca90a181c9c1a7b1b6550,151.230.146.118,"Mozilla/5.0 (Macintosh; Intel Mac OS X 10_15_7) AppleWebKit/537.36 (KHTML, like Gecko) Chrome/113.0.0.0 Safari/537.36",Macintosh,Chrome,113.0.0.0,OS X,10_15_7,,,,,false,[],[],[],,
,audio-slider-response,19,133742,0.0-19.0-0.0,13,1,2023-07-28 12:52:32,6ad40e38acdca90a181c9c1a7b1b6550,151.230.146.118,"Mozilla/5.0 (Macintosh; Intel Mac OS X 10_15_7) AppleWebKit/537.36 (KHTML, like Gecko) Chrome/113.0.0.0 Safari/537.36",Macintosh,Chrome,113.0.0.0,OS X,10_15_7,17757,Rick-Astley-Never-Gonna-Give-You.mp3,100,audio_slider,,,,,50,
true,fullscreen,0,2233,0.0-0.0,7,1,2023-07-28 12:50:27,6ad40e38acdca90a181c9c1a7b1b6550,2.108.90.82,"Mozilla/5.0 (Windows NT 10.0; Win64; x64) AppleWebKit/537.36 (KHTML, like Gecko) Chrome/115.0.0.0 Safari/537.36",WebKit,Chrome,115.0.0.0,Windows,10.0,,,,,,,,,,
,html-button-response,1,3619,0.0-1.0,7,1,2023-07-28 12:50:27,6ad40e38acdca90a181c9c1a7b1b6550,2.108.90.82,"Mozilla/5.0 (Windows NT 10.0; Win64; x64) AppleWebKit/537.36 (KHTML, like Gecko) Chrome/115.0.0.0 Safari/537.36",WebKit,Chrome,115.0.0.0,Windows,10.0,1378,Welcome to the experiment of Group 6,0,,,,,,,
,html-button-response,2,5827,0.0-2.0,7,1,2023-07-28 12:50:27,6ad40e38acdca90a181c9c1a7b1b6550,2.108.90.82,"Mozilla/5.0 (Windows NT 10.0; Win64; x64) AppleWebKit/537.36 (KHTML, like Gecko) Chrome/115.0.0.0 Safari/537.36",WebKit,Chrome,115.0.0.0,Windows,10.0,2204,"
        <p>In this experiment, you will hear different songs. You will have to focus on your emotions during listening to it.</p>
        <p> After each track, you must indicate on a scale how happy or sad it makes you feel.</p>",0,instruction,,,,,,
true,preload,3,5832,0.0-3.0,7,1,2023-07-28 12:50:27,6ad40e38acdca90a181c9c1a7b1b6550,2.108.90.82,"Mozilla/5.0 (Windows NT 10.0; Win64; x64) AppleWebKit/537.36 (KHTML, like Gecko) Chrome/115.0.0.0 Safari/537.36",WebKit,Chrome,115.0.0.0,Windows,10.0,,,,,false,[],[],[],,
,audio-slider-response,4,28217,0.0-4.0-0.0,7,1,2023-07-28 12:50:27,6ad40e38acdca90a181c9c1a7b1b6550,2.108.90.82,"Mozilla/5.0 (Windows NT 10.0; Win64; x64) AppleWebKit/537.36 (KHTML, like Gecko) Chrome/115.0.0.0 Safari/537.36",WebKit,Chrome,115.0.0.0,Windows,10.0,22192,Eric-Clapton-Tears-In-Heaven-Ins.mp3,56,audio_slider,,,,,50,
,survey-multi-choice,5,32320,0.0-5.0-0.0,7,1,2023-07-28 12:50:27,6ad40e38acdca90a181c9c1a7b1b6550,2.108.90.82,"Mozilla/5.0 (Windows NT 10.0; Win64; x64) AppleWebKit/537.36 (KHTML, like Gecko) Chrome/115.0.0.0 Safari/537.36",WebKit,Chrome,115.0.0.0,Windows,10.0,4096,,"{""familiarity"":""no""}",multi_choice,,,,,,[0]
true,preload,6,32330,0.0-6.0,7,1,2023-07-28 12:50:27,6ad40e38acdca90a181c9c1a7b1b6550,2.108.90.82,"Mozilla/5.0 (Windows NT 10.0; Win64; x64) AppleWebKit/537.36 (KHTML, like Gecko) Chrome/115.0.0.0 Safari/537.36",WebKit,Chrome,115.0.0.0,Windows,10.0,,,,,false,[],[],[],,
,audio-slider-response,7,62327,0.0-7.0-0.0,7,1,2023-07-28 12:50:27,6ad40e38acdca90a181c9c1a7b1b6550,2.108.90.82,"Mozilla/5.0 (Windows NT 10.0; Win64; x64) AppleWebKit/537.36 (KHTML, like Gecko) Chrome/115.0.0.0 Safari/537.36",WebKit,Chrome,115.0.0.0,Windows,10.0,29461,Daniel-Powter-Bad-Day-Official-M-[AudioTrimmer.com].mp3,49,audio_slider,,,,,50,
,survey-multi-choice,8,67098,0.0-8.0-0.0,7,1,2023-07-28 12:50:27,6ad40e38acdca90a181c9c1a7b1b6550,2.108.90.82,"Mozilla/5.0 (Windows NT 10.0; Win64; x64) AppleWebKit/537.36 (KHTML, like Gecko) Chrome/115.0.0.0 Safari/537.36",WebKit,Chrome,115.0.0.0,Windows,10.0,4763,,"{""familiarity"":""yes""}",multi_choice,,,,,,[0]
true,preload,9,67101,0.0-9.0,7,1,2023-07-28 12:50:27,6ad40e38acdca90a181c9c1a7b1b6550,2.108.90.82,"Mozilla/5.0 (Windows NT 10.0; Win64; x64) AppleWebKit/537.36 (KHTML, like Gecko) Chrome/115.0.0.0 Safari/537.36",WebKit,Chrome,115.0.0.0,Windows,10.0,,,,,false,[],[],[],,
,audio-slider-response,10,86058,0.0-10.0-0.0,7,1,2023-07-28 12:50:27,6ad40e38acdca90a181c9c1a7b1b6550,2.108.90.82,"Mozilla/5.0 (Windows NT 10.0; Win64; x64) AppleWebKit/537.36 (KHTML, like Gecko) Chrome/115.0.0.0 Safari/537.36",WebKit,Chrome,115.0.0.0,Windows,10.0,18501,Rick-Astley-Never-Gonna-Give-You (1).mp3,59,audio_slider,,,,,50,
,survey-multi-choice,11,91222,0.0-11.0-0.0,7,1,2023-07-28 12:50:27,6ad40e38acdca90a181c9c1a7b1b6550,2.108.90.82,"Mozilla/5.0 (Windows NT 10.0; Win64; x64) AppleWebKit/537.36 (KHTML, like Gecko) Chrome/115.0.0.0 Safari/537.36",WebKit,Chrome,115.0.0.0,Windows,10.0,5157,,"{""familiarity"":""yes""}",multi_choice,,,,,,[0]
true,preload,12,91235,0.0-12.0,7,1,2023-07-28 12:50:27,6ad40e38acdca90a181c9c1a7b1b6550,2.108.90.82,"Mozilla/5.0 (Windows NT 10.0; Win64; x64) AppleWebKit/537.36 (KHTML, like Gecko) Chrome/115.0.0.0 Safari/537.36",WebKit,Chrome,115.0.0.0,Windows,10.0,,,,,false,[],[],[],,
,audio-slider-response,13,111643,0.0-13.0-0.0,7,1,2023-07-28 12:50:27,6ad40e38acdca90a181c9c1a7b1b6550,2.108.90.82,"Mozilla/5.0 (Windows NT 10.0; Win64; x64) AppleWebKit/537.36 (KHTML, like Gecko) Chrome/115.0.0.0 Safari/537.36",WebKit,Chrome,115.0.0.0,Windows,10.0,19939,Eric-Clapton-Tears-In-Heaven-Off.mp3,38,audio_slider,,,,,50,
,survey-multi-choice,14,114284,0.0-14.0-0.0,7,1,2023-07-28 12:50:27,6ad40e38acdca90a181c9c1a7b1b6550,2.108.90.82,"Mozilla/5.0 (Windows NT 10.0; Win64; x64) AppleWebKit/537.36 (KHTML, like Gecko) Chrome/115.0.0.0 Safari/537.36",WebKit,Chrome,115.0.0.0,Windows,10.0,2636,,"{""familiarity"":""yes""}",multi_choice,,,,,,[0]
true,preload,15,114287,0.0-15.0,7,1,2023-07-28 12:50:27,6ad40e38acdca90a181c9c1a7b1b6550,2.108.90.82,"Mozilla/5.0 (Windows NT 10.0; Win64; x64) AppleWebKit/537.36 (KHTML, like Gecko) Chrome/115.0.0.0 Safari/537.36",WebKit,Chrome,115.0.0.0,Windows,10.0,,,,,false,[],[],[],,
,audio-slider-response,16,128930,0.0-16.0-0.0,7,1,2023-07-28 12:50:27,6ad40e38acdca90a181c9c1a7b1b6550,2.108.90.82,"Mozilla/5.0 (Windows NT 10.0; Win64; x64) AppleWebKit/537.36 (KHTML, like Gecko) Chrome/115.0.0.0 Safari/537.36",WebKit,Chrome,115.0.0.0,Windows,10.0,14509,Daniel-Powter-Bad-Day-Instrument.mp3,58,audio_slider,,,,,50,
,survey-multi-choice,17,132024,0.0-17.0-0.0,7,1,2023-07-28 12:50:27,6ad40e38acdca90a181c9c1a7b1b6550,2.108.90.82,"Mozilla/5.0 (Windows NT 10.0; Win64; x64) AppleWebKit/537.36 (KHTML, like Gecko) Chrome/115.0.0.0 Safari/537.36",WebKit,Chrome,115.0.0.0,Windows,10.0,3083,,"{""familiarity"":""no""}",multi_choice,,,,,,[0]
true,preload,18,132040,0.0-18.0,7,1,2023-07-28 12:50:27,6ad40e38acdca90a181c9c1a7b1b6550,2.108.90.82,"Mozilla/5.0 (Windows NT 10.0; Win64; x64) AppleWebKit/537.36 (KHTML, like Gecko) Chrome/115.0.0.0 Safari/537.36",WebKit,Chrome,115.0.0.0,Windows,10.0,,,,,false,[],[],[],,
,audio-slider-response,19,149705,0.0-19.0-0.0,7,1,2023-07-28 12:50:27,6ad40e38acdca90a181c9c1a7b1b6550,2.108.90.82,"Mozilla/5.0 (Windows NT 10.0; Win64; x64) AppleWebKit/537.36 (KHTML, like Gecko) Chrome/115.0.0.0 Safari/537.36",WebKit,Chrome,115.0.0.0,Windows,10.0,17440,Rick-Astley-Never-Gonna-Give-You.mp3,57,audio_slider,,,,,50,
true,fullscreen,0,2788,0.0-0.0,6,1,2023-07-28 12:50:01,6ad40e38acdca90a181c9c1a7b1b6550,2.108.90.82,"Mozilla/5.0 (Macintosh; Intel Mac OS X 10_15_7) AppleWebKit/605.1.15 (KHTML, like Gecko) Version/15.4 Safari/605.1.15",Macintosh,Safari,15.4,OS X,10_15_7,,,,,,,,,,
,html-button-response,1,6424,0.0-1.0,6,1,2023-07-28 12:50:01,6ad40e38acdca90a181c9c1a7b1b6550,2.108.90.82,"Mozilla/5.0 (Macintosh; Intel Mac OS X 10_15_7) AppleWebKit/605.1.15 (KHTML, like Gecko) Version/15.4 Safari/605.1.15",Macintosh,Safari,15.4,OS X,10_15_7,3630,Welcome to the experiment of Group 6,0,,,,,,,
,html-button-response,2,13568,0.0-2.0,6,1,2023-07-28 12:50:01,6ad40e38acdca90a181c9c1a7b1b6550,2.108.90.82,"Mozilla/5.0 (Macintosh; Intel Mac OS X 10_15_7) AppleWebKit/605.1.15 (KHTML, like Gecko) Version/15.4 Safari/605.1.15",Macintosh,Safari,15.4,OS X,10_15_7,7142,"
        <p>In this experiment, you will hear different songs. You will have to focus on your emotions during listening to it.</p>
        <p> After each track, you must indicate on a scale how happy or sad it makes you feel.</p>",0,instruction,,,,,,
true,preload,3,13571,0.0-3.0,6,1,2023-07-28 12:50:01,6ad40e38acdca90a181c9c1a7b1b6550,2.108.90.82,"Mozilla/5.0 (Macintosh; Intel Mac OS X 10_15_7) AppleWebKit/605.1.15 (KHTML, like Gecko) Version/15.4 Safari/605.1.15",Macintosh,Safari,15.4,OS X,10_15_7,,,,,false,[],[],[],,
,audio-slider-response,4,34706,0.0-4.0-0.0,6,1,2023-07-28 12:50:01,6ad40e38acdca90a181c9c1a7b1b6550,2.108.90.82,"Mozilla/5.0 (Macintosh; Intel Mac OS X 10_15_7) AppleWebKit/605.1.15 (KHTML, like Gecko) Version/15.4 Safari/605.1.15",Macintosh,Safari,15.4,OS X,10_15_7,20753,Eric-Clapton-Tears-In-Heaven-Ins.mp3,71,audio_slider,,,,,50,
,survey-multi-choice,5,37073,0.0-5.0-0.0,6,1,2023-07-28 12:50:01,6ad40e38acdca90a181c9c1a7b1b6550,2.108.90.82,"Mozilla/5.0 (Macintosh; Intel Mac OS X 10_15_7) AppleWebKit/605.1.15 (KHTML, like Gecko) Version/15.4 Safari/605.1.15",Macintosh,Safari,15.4,OS X,10_15_7,2363,,"{""familiarity"":""yes""}",multi_choice,,,,,,[0]
true,preload,6,37076,0.0-6.0,6,1,2023-07-28 12:50:01,6ad40e38acdca90a181c9c1a7b1b6550,2.108.90.82,"Mozilla/5.0 (Macintosh; Intel Mac OS X 10_15_7) AppleWebKit/605.1.15 (KHTML, like Gecko) Version/15.4 Safari/605.1.15",Macintosh,Safari,15.4,OS X,10_15_7,,,,,false,[],[],[],,
,audio-slider-response,7,63353,0.0-7.0-0.0,6,1,2023-07-28 12:50:01,6ad40e38acdca90a181c9c1a7b1b6550,2.108.90.82,"Mozilla/5.0 (Macintosh; Intel Mac OS X 10_15_7) AppleWebKit/605.1.15 (KHTML, like Gecko) Version/15.4 Safari/605.1.15",Macintosh,Safari,15.4,OS X,10_15_7,26157,Daniel-Powter-Bad-Day-Official-M-[AudioTrimmer.com].mp3,28,audio_slider,,,,,50,
,survey-multi-choice,8,66757,0.0-8.0-0.0,6,1,2023-07-28 12:50:01,6ad40e38acdca90a181c9c1a7b1b6550,2.108.90.82,"Mozilla/5.0 (Macintosh; Intel Mac OS X 10_15_7) AppleWebKit/605.1.15 (KHTML, like Gecko) Version/15.4 Safari/605.1.15",Macintosh,Safari,15.4,OS X,10_15_7,3402,,"{""familiarity"":""yes""}",multi_choice,,,,,,[0]
true,preload,9,66761,0.0-9.0,6,1,2023-07-28 12:50:01,6ad40e38acdca90a181c9c1a7b1b6550,2.108.90.82,"Mozilla/5.0 (Macintosh; Intel Mac OS X 10_15_7) AppleWebKit/605.1.15 (KHTML, like Gecko) Version/15.4 Safari/605.1.15",Macintosh,Safari,15.4,OS X,10_15_7,,,,,false,[],[],[],,
,audio-slider-response,10,84366,0.0-10.0-0.0,6,1,2023-07-28 12:50:01,6ad40e38acdca90a181c9c1a7b1b6550,2.108.90.82,"Mozilla/5.0 (Macintosh; Intel Mac OS X 10_15_7) AppleWebKit/605.1.15 (KHTML, like Gecko) Version/15.4 Safari/605.1.15",Macintosh,Safari,15.4,OS X,10_15_7,17525,Rick-Astley-Never-Gonna-Give-You (1).mp3,78,audio_slider,,,,,50,
,survey-multi-choice,11,86799,0.0-11.0-0.0,6,1,2023-07-28 12:50:01,6ad40e38acdca90a181c9c1a7b1b6550,2.108.90.82,"Mozilla/5.0 (Macintosh; Intel Mac OS X 10_15_7) AppleWebKit/605.1.15 (KHTML, like Gecko) Version/15.4 Safari/605.1.15",Macintosh,Safari,15.4,OS X,10_15_7,2431,,"{""familiarity"":""yes""}",multi_choice,,,,,,[0]
true,preload,12,86801,0.0-12.0,6,1,2023-07-28 12:50:01,6ad40e38acdca90a181c9c1a7b1b6550,2.108.90.82,"Mozilla/5.0 (Macintosh; Intel Mac OS X 10_15_7) AppleWebKit/605.1.15 (KHTML, like Gecko) Version/15.4 Safari/605.1.15",Macintosh,Safari,15.4,OS X,10_15_7,,,,,false,[],[],[],,
,audio-slider-response,13,120016,0.0-13.0-0.0,6,1,2023-07-28 12:50:01,6ad40e38acdca90a181c9c1a7b1b6550,2.108.90.82,"Mozilla/5.0 (Macintosh; Intel Mac OS X 10_15_7) AppleWebKit/605.1.15 (KHTML, like Gecko) Version/15.4 Safari/605.1.15",Macintosh,Safari,15.4,OS X,10_15_7,33074,Eric-Clapton-Tears-In-Heaven-Off.mp3,33,audio_slider,,,,,50,
,survey-multi-choice,14,122016,0.0-14.0-0.0,6,1,2023-07-28 12:50:01,6ad40e38acdca90a181c9c1a7b1b6550,2.108.90.82,"Mozilla/5.0 (Macintosh; Intel Mac OS X 10_15_7) AppleWebKit/605.1.15 (KHTML, like Gecko) Version/15.4 Safari/605.1.15",Macintosh,Safari,15.4,OS X,10_15_7,1997,,"{""familiarity"":""yes""}",multi_choice,,,,,,[0]
true,preload,15,122019,0.0-15.0,6,1,2023-07-28 12:50:01,6ad40e38acdca90a181c9c1a7b1b6550,2.108.90.82,"Mozilla/5.0 (Macintosh; Intel Mac OS X 10_15_7) AppleWebKit/605.1.15 (KHTML, like Gecko) Version/15.4 Safari/605.1.15",Macintosh,Safari,15.4,OS X,10_15_7,,,,,false,[],[],[],,
,audio-slider-response,16,135831,0.0-16.0-0.0,6,1,2023-07-28 12:50:01,6ad40e38acdca90a181c9c1a7b1b6550,2.108.90.82,"Mozilla/5.0 (Macintosh; Intel Mac OS X 10_15_7) AppleWebKit/605.1.15 (KHTML, like Gecko) Version/15.4 Safari/605.1.15",Macintosh,Safari,15.4,OS X,10_15_7,13720,Daniel-Powter-Bad-Day-Instrument.mp3,64,audio_slider,,,,,50,
,survey-multi-choice,17,140251,0.0-17.0-0.0,6,1,2023-07-28 12:50:01,6ad40e38acdca90a181c9c1a7b1b6550,2.108.90.82,"Mozilla/5.0 (Macintosh; Intel Mac OS X 10_15_7) AppleWebKit/605.1.15 (KHTML, like Gecko) Version/15.4 Safari/605.1.15",Macintosh,Safari,15.4,OS X,10_15_7,4416,,"{""familiarity"":""no""}",multi_choice,,,,,,[0]
true,preload,18,140256,0.0-18.0,6,1,2023-07-28 12:50:01,6ad40e38acdca90a181c9c1a7b1b6550,2.108.90.82,"Mozilla/5.0 (Macintosh; Intel Mac OS X 10_15_7) AppleWebKit/605.1.15 (KHTML, like Gecko) Version/15.4 Safari/605.1.15",Macintosh,Safari,15.4,OS X,10_15_7,,,,,false,[],[],[],,
,audio-slider-response,19,160486,0.0-19.0-0.0,6,1,2023-07-28 12:50:01,6ad40e38acdca90a181c9c1a7b1b6550,2.108.90.82,"Mozilla/5.0 (Macintosh; Intel Mac OS X 10_15_7) AppleWebKit/605.1.15 (KHTML, like Gecko) Version/15.4 Safari/605.1.15",Macintosh,Safari,15.4,OS X,10_15_7,20123,Rick-Astley-Never-Gonna-Give-You.mp3,84,audio_slider,,,,,50,
,survey-multi-choice,20,163653,0.0-20.0-0.0,6,1,2023-07-28 12:50:01,6ad40e38acdca90a181c9c1a7b1b6550,2.108.90.82,"Mozilla/5.0 (Macintosh; Intel Mac OS X 10_15_7) AppleWebKit/605.1.15 (KHTML, like Gecko) Version/15.4 Safari/605.1.15",Macintosh,Safari,15.4,OS X,10_15_7,3166,,"{""familiarity"":""yes""}",multi_choice,,,,,,[0]
true,fullscreen,21,164658,0.0-21.0,6,1,2023-07-28 12:50:01,6ad40e38acdca90a181c9c1a7b1b6550,2.108.90.82,"Mozilla/5.0 (Macintosh; Intel Mac OS X 10_15_7) AppleWebKit/605.1.15 (KHTML, like Gecko) Version/15.4 Safari/605.1.15",Macintosh,Safari,15.4,OS X,10_15_7,,,,,,,,,,
,html-keyboard-response,22,165965,0.0-22.0,6,1,2023-07-28 12:50:01,6ad40e38acdca90a181c9c1a7b1b6550,2.108.90.82,"Mozilla/5.0 (Macintosh; Intel Mac OS X 10_15_7) AppleWebKit/605.1.15 (KHTML, like Gecko) Version/15.4 Safari/605.1.15",Macintosh,Safari,15.4,OS X,10_15_7,1303,Thank you for your participation. You may now close the window.,escape,,,,,,,
true,fullscreen,0,2293,0.0-0.0,5,1,2023-07-28 12:49:28,6ad40e38acdca90a181c9c1a7b1b6550,80.208.71.254,Mozilla/5.0 (Macintosh; Intel Mac OS X 10.15; rv:109.0) Gecko/20100101 Firefox/114.0,Macintosh,Firefox,114.0,OS X,10.15,,,,,,,,,,
,html-button-response,1,3837,0.0-1.0,5,1,2023-07-28 12:49:28,6ad40e38acdca90a181c9c1a7b1b6550,80.208.71.254,Mozilla/5.0 (Macintosh; Intel Mac OS X 10.15; rv:109.0) Gecko/20100101 Firefox/114.0,Macintosh,Firefox,114.0,OS X,10.15,1542,Welcome to the experiment of Group 6,0,,,,,,,
,html-button-response,2,13415,0.0-2.0,5,1,2023-07-28 12:49:28,6ad40e38acdca90a181c9c1a7b1b6550,80.208.71.254,Mozilla/5.0 (Macintosh; Intel Mac OS X 10.15; rv:109.0) Gecko/20100101 Firefox/114.0,Macintosh,Firefox,114.0,OS X,10.15,9576,"
        <p>In this experiment, you will hear different songs. You will have to focus on your emotions during listening to it.</p>
        <p> After each track, you must indicate on a scale how happy or sad it makes you feel.</p>",0,instruction,,,,,,
true,preload,3,13417,0.0-3.0,5,1,2023-07-28 12:49:28,6ad40e38acdca90a181c9c1a7b1b6550,80.208.71.254,Mozilla/5.0 (Macintosh; Intel Mac OS X 10.15; rv:109.0) Gecko/20100101 Firefox/114.0,Macintosh,Firefox,114.0,OS X,10.15,,,,,false,[],[],[],,
,audio-slider-response,4,30377,0.0-4.0-0.0,5,1,2023-07-28 12:49:28,6ad40e38acdca90a181c9c1a7b1b6550,80.208.71.254,Mozilla/5.0 (Macintosh; Intel Mac OS X 10.15; rv:109.0) Gecko/20100101 Firefox/114.0,Macintosh,Firefox,114.0,OS X,10.15,16742,Eric-Clapton-Tears-In-Heaven-Ins.mp3,21,audio_slider,,,,,50,
,survey-multi-choice,5,36463,0.0-5.0-0.0,5,1,2023-07-28 12:49:28,6ad40e38acdca90a181c9c1a7b1b6550,80.208.71.254,Mozilla/5.0 (Macintosh; Intel Mac OS X 10.15; rv:109.0) Gecko/20100101 Firefox/114.0,Macintosh,Firefox,114.0,OS X,10.15,6082,,"{""familiarity"":""no""}",multi_choice,,,,,,[0]
true,preload,6,36465,0.0-6.0,5,1,2023-07-28 12:49:28,6ad40e38acdca90a181c9c1a7b1b6550,80.208.71.254,Mozilla/5.0 (Macintosh; Intel Mac OS X 10.15; rv:109.0) Gecko/20100101 Firefox/114.0,Macintosh,Firefox,114.0,OS X,10.15,,,,,false,[],[],[],,
,audio-slider-response,7,62778,0.0-7.0-0.0,5,1,2023-07-28 12:49:28,6ad40e38acdca90a181c9c1a7b1b6550,80.208.71.254,Mozilla/5.0 (Macintosh; Intel Mac OS X 10.15; rv:109.0) Gecko/20100101 Firefox/114.0,Macintosh,Firefox,114.0,OS X,10.15,26053,Daniel-Powter-Bad-Day-Official-M-[AudioTrimmer.com].mp3,53,audio_slider,,,,,50,
,survey-multi-choice,8,65073,0.0-8.0-0.0,5,1,2023-07-28 12:49:28,6ad40e38acdca90a181c9c1a7b1b6550,80.208.71.254,Mozilla/5.0 (Macintosh; Intel Mac OS X 10.15; rv:109.0) Gecko/20100101 Firefox/114.0,Macintosh,Firefox,114.0,OS X,10.15,2292,,"{""familiarity"":""yes""}",multi_choice,,,,,,[0]
true,preload,9,65073,0.0-9.0,5,1,2023-07-28 12:49:28,6ad40e38acdca90a181c9c1a7b1b6550,80.208.71.254,Mozilla/5.0 (Macintosh; Intel Mac OS X 10.15; rv:109.0) Gecko/20100101 Firefox/114.0,Macintosh,Firefox,114.0,OS X,10.15,,,,,false,[],[],[],,
,audio-slider-response,10,82965,0.0-10.0-0.0,5,1,2023-07-28 12:49:28,6ad40e38acdca90a181c9c1a7b1b6550,80.208.71.254,Mozilla/5.0 (Macintosh; Intel Mac OS X 10.15; rv:109.0) Gecko/20100101 Firefox/114.0,Macintosh,Firefox,114.0,OS X,10.15,17647,Rick-Astley-Never-Gonna-Give-You (1).mp3,75,audio_slider,,,,,50,
,survey-multi-choice,11,84682,0.0-11.0-0.0,5,1,2023-07-28 12:49:28,6ad40e38acdca90a181c9c1a7b1b6550,80.208.71.254,Mozilla/5.0 (Macintosh; Intel Mac OS X 10.15; rv:109.0) Gecko/20100101 Firefox/114.0,Macintosh,Firefox,114.0,OS X,10.15,1712,,"{""familiarity"":""yes""}",multi_choice,,,,,,[0]
true,preload,12,84683,0.0-12.0,5,1,2023-07-28 12:49:28,6ad40e38acdca90a181c9c1a7b1b6550,80.208.71.254,Mozilla/5.0 (Macintosh; Intel Mac OS X 10.15; rv:109.0) Gecko/20100101 Firefox/114.0,Macintosh,Firefox,114.0,OS X,10.15,,,,,false,[],[],[],,
,audio-slider-response,13,102416,0.0-13.0-0.0,5,1,2023-07-28 12:49:28,6ad40e38acdca90a181c9c1a7b1b6550,80.208.71.254,Mozilla/5.0 (Macintosh; Intel Mac OS X 10.15; rv:109.0) Gecko/20100101 Firefox/114.0,Macintosh,Firefox,114.0,OS X,10.15,17519,Eric-Clapton-Tears-In-Heaven-Off.mp3,10,audio_slider,,,,,50,
,survey-multi-choice,14,104193,0.0-14.0-0.0,5,1,2023-07-28 12:49:28,6ad40e38acdca90a181c9c1a7b1b6550,80.208.71.254,Mozilla/5.0 (Macintosh; Intel Mac OS X 10.15; rv:109.0) Gecko/20100101 Firefox/114.0,Macintosh,Firefox,114.0,OS X,10.15,1775,,"{""familiarity"":""no""}",multi_choice,,,,,,[0]
true,preload,15,104194,0.0-15.0,5,1,2023-07-28 12:49:28,6ad40e38acdca90a181c9c1a7b1b6550,80.208.71.254,Mozilla/5.0 (Macintosh; Intel Mac OS X 10.15; rv:109.0) Gecko/20100101 Firefox/114.0,Macintosh,Firefox,114.0,OS X,10.15,,,,,false,[],[],[],,
,audio-slider-response,16,116830,0.0-16.0-0.0,5,1,2023-07-28 12:49:28,6ad40e38acdca90a181c9c1a7b1b6550,80.208.71.254,Mozilla/5.0 (Macintosh; Intel Mac OS X 10.15; rv:109.0) Gecko/20100101 Firefox/114.0,Macintosh,Firefox,114.0,OS X,10.15,12469,Daniel-Powter-Bad-Day-Instrument.mp3,39,audio_slider,,,,,50,
,survey-multi-choice,17,119659,0.0-17.0-0.0,5,1,2023-07-28 12:49:28,6ad40e38acdca90a181c9c1a7b1b6550,80.208.71.254,Mozilla/5.0 (Macintosh; Intel Mac OS X 10.15; rv:109.0) Gecko/20100101 Firefox/114.0,Macintosh,Firefox,114.0,OS X,10.15,2827,,"{""familiarity"":""yes""}",multi_choice,,,,,,[0]
true,preload,18,119660,0.0-18.0,5,1,2023-07-28 12:49:28,6ad40e38acdca90a181c9c1a7b1b6550,80.208.71.254,Mozilla/5.0 (Macintosh; Intel Mac OS X 10.15; rv:109.0) Gecko/20100101 Firefox/114.0,Macintosh,Firefox,114.0,OS X,10.15,,,,,false,[],[],[],,
,audio-slider-response,19,136154,0.0-19.0-0.0,5,1,2023-07-28 12:49:28,6ad40e38acdca90a181c9c1a7b1b6550,80.208.71.254,Mozilla/5.0 (Macintosh; Intel Mac OS X 10.15; rv:109.0) Gecko/20100101 Firefox/114.0,Macintosh,Firefox,114.0,OS X,10.15,16289,Rick-Astley-Never-Gonna-Give-You.mp3,72,audio_slider,,,,,50,
true,fullscreen,0,5019,0.0-0.0,1,1,2023-07-28 12:39:17,6ad40e38acdca90a181c9c1a7b1b6550,193.163.223.60,"Mozilla/5.0 (Macintosh; Intel Mac OS X 10_15_7) AppleWebKit/605.1.15 (KHTML, like Gecko) Version/16.5.2 Safari/605.1.15",Macintosh,Safari,16.5.2,OS X,10_15_7,,,,,,,,,,
,html-button-response,1,6302,0.0-1.0,1,1,2023-07-28 12:39:17,6ad40e38acdca90a181c9c1a7b1b6550,193.163.223.60,"Mozilla/5.0 (Macintosh; Intel Mac OS X 10_15_7) AppleWebKit/605.1.15 (KHTML, like Gecko) Version/16.5.2 Safari/605.1.15",Macintosh,Safari,16.5.2,OS X,10_15_7,1279,Welcome to the experiment of Group 6,0,,,,,,,
,html-button-response,2,12338,0.0-2.0,1,1,2023-07-28 12:39:17,6ad40e38acdca90a181c9c1a7b1b6550,193.163.223.60,"Mozilla/5.0 (Macintosh; Intel Mac OS X 10_15_7) AppleWebKit/605.1.15 (KHTML, like Gecko) Version/16.5.2 Safari/605.1.15",Macintosh,Safari,16.5.2,OS X,10_15_7,6034,"
        <p>In this experiment, you will hear different songs. You will have to focus on your emotions during listening to it.</p>
        <p> After each track, you must indicate on a scale how happy or sad it makes you feel.</p>",0,instruction,,,,,,
true,preload,3,12340,0.0-3.0,1,1,2023-07-28 12:39:17,6ad40e38acdca90a181c9c1a7b1b6550,193.163.223.60,"Mozilla/5.0 (Macintosh; Intel Mac OS X 10_15_7) AppleWebKit/605.1.15 (KHTML, like Gecko) Version/16.5.2 Safari/605.1.15",Macintosh,Safari,16.5.2,OS X,10_15_7,,,,,false,[],[],[],,
,audio-slider-response,4,30853,0.0-4.0-0.0,1,1,2023-07-28 12:39:17,6ad40e38acdca90a181c9c1a7b1b6550,193.163.223.60,"Mozilla/5.0 (Macintosh; Intel Mac OS X 10_15_7) AppleWebKit/605.1.15 (KHTML, like Gecko) Version/16.5.2 Safari/605.1.15",Macintosh,Safari,16.5.2,OS X,10_15_7,18242,Eric-Clapton-Tears-In-Heaven-Ins.mp3,55,audio_slider,,,,,50,
,survey-multi-choice,5,34653,0.0-5.0-0.0,1,1,2023-07-28 12:39:17,6ad40e38acdca90a181c9c1a7b1b6550,193.163.223.60,"Mozilla/5.0 (Macintosh; Intel Mac OS X 10_15_7) AppleWebKit/605.1.15 (KHTML, like Gecko) Version/16.5.2 Safari/605.1.15",Macintosh,Safari,16.5.2,OS X,10_15_7,3794,,"{""familiarity"":""yes""}",multi_choice,,,,,,[0]
true,preload,6,34668,0.0-6.0,1,1,2023-07-28 12:39:17,6ad40e38acdca90a181c9c1a7b1b6550,193.163.223.60,"Mozilla/5.0 (Macintosh; Intel Mac OS X 10_15_7) AppleWebKit/605.1.15 (KHTML, like Gecko) Version/16.5.2 Safari/605.1.15",Macintosh,Safari,16.5.2,OS X,10_15_7,,,,,false,[],[],[],,
,audio-slider-response,7,63906,0.0-7.0-0.0,1,1,2023-07-28 12:39:17,6ad40e38acdca90a181c9c1a7b1b6550,193.163.223.60,"Mozilla/5.0 (Macintosh; Intel Mac OS X 10_15_7) AppleWebKit/605.1.15 (KHTML, like Gecko) Version/16.5.2 Safari/605.1.15",Macintosh,Safari,16.5.2,OS X,10_15_7,28952,Daniel-Powter-Bad-Day-Official-M-[AudioTrimmer.com].mp3,70,audio_slider,,,,,50,
,survey-multi-choice,8,66822,0.0-8.0-0.0,1,1,2023-07-28 12:39:17,6ad40e38acdca90a181c9c1a7b1b6550,193.163.223.60,"Mozilla/5.0 (Macintosh; Intel Mac OS X 10_15_7) AppleWebKit/605.1.15 (KHTML, like Gecko) Version/16.5.2 Safari/605.1.15",Macintosh,Safari,16.5.2,OS X,10_15_7,2914,,"{""familiarity"":""yes""}",multi_choice,,,,,,[0]
true,preload,9,66838,0.0-9.0,1,1,2023-07-28 12:39:17,6ad40e38acdca90a181c9c1a7b1b6550,193.163.223.60,"Mozilla/5.0 (Macintosh; Intel Mac OS X 10_15_7) AppleWebKit/605.1.15 (KHTML, like Gecko) Version/16.5.2 Safari/605.1.15",Macintosh,Safari,16.5.2,OS X,10_15_7,,,,,false,[],[],[],,
,audio-slider-response,10,104264,0.0-10.0-0.0,1,1,2023-07-28 12:39:17,6ad40e38acdca90a181c9c1a7b1b6550,193.163.223.60,"Mozilla/5.0 (Macintosh; Intel Mac OS X 10_15_7) AppleWebKit/605.1.15 (KHTML, like Gecko) Version/16.5.2 Safari/605.1.15",Macintosh,Safari,16.5.2,OS X,10_15_7,37213,Rick-Astley-Never-Gonna-Give-You (1).mp3,77,audio_slider,,,,,50,
,survey-multi-choice,11,106508,0.0-11.0-0.0,1,1,2023-07-28 12:39:17,6ad40e38acdca90a181c9c1a7b1b6550,193.163.223.60,"Mozilla/5.0 (Macintosh; Intel Mac OS X 10_15_7) AppleWebKit/605.1.15 (KHTML, like Gecko) Version/16.5.2 Safari/605.1.15",Macintosh,Safari,16.5.2,OS X,10_15_7,2240,,"{""familiarity"":""yes""}",multi_choice,,,,,,[0]
true,preload,12,106524,0.0-12.0,1,1,2023-07-28 12:39:17,6ad40e38acdca90a181c9c1a7b1b6550,193.163.223.60,"Mozilla/5.0 (Macintosh; Intel Mac OS X 10_15_7) AppleWebKit/605.1.15 (KHTML, like Gecko) Version/16.5.2 Safari/605.1.15",Macintosh,Safari,16.5.2,OS X,10_15_7,,,,,false,[],[],[],,
,audio-slider-response,13,129550,0.0-13.0-0.0,1,1,2023-07-28 12:39:17,6ad40e38acdca90a181c9c1a7b1b6550,193.163.223.60,"Mozilla/5.0 (Macintosh; Intel Mac OS X 10_15_7) AppleWebKit/605.1.15 (KHTML, like Gecko) Version/16.5.2 Safari/605.1.15",Macintosh,Safari,16.5.2,OS X,10_15_7,22764,Eric-Clapton-Tears-In-Heaven-Off.mp3,66,audio_slider,,,,,50,
,survey-multi-choice,14,135948,0.0-14.0-0.0,1,1,2023-07-28 12:39:17,6ad40e38acdca90a181c9c1a7b1b6550,193.163.223.60,"Mozilla/5.0 (Macintosh; Intel Mac OS X 10_15_7) AppleWebKit/605.1.15 (KHTML, like Gecko) Version/16.5.2 Safari/605.1.15",Macintosh,Safari,16.5.2,OS X,10_15_7,6395,,"{""familiarity"":""yes""}",multi_choice,,,,,,[0]
true,preload,15,135965,0.0-15.0,1,1,2023-07-28 12:39:17,6ad40e38acdca90a181c9c1a7b1b6550,193.163.223.60,"Mozilla/5.0 (Macintosh; Intel Mac OS X 10_15_7) AppleWebKit/605.1.15 (KHTML, like Gecko) Version/16.5.2 Safari/605.1.15",Macintosh,Safari,16.5.2,OS X,10_15_7,,,,,false,[],[],[],,
,audio-slider-response,16,161045,0.0-16.0-0.0,1,1,2023-07-28 12:39:17,6ad40e38acdca90a181c9c1a7b1b6550,193.163.223.60,"Mozilla/5.0 (Macintosh; Intel Mac OS X 10_15_7) AppleWebKit/605.1.15 (KHTML, like Gecko) Version/16.5.2 Safari/605.1.15",Macintosh,Safari,16.5.2,OS X,10_15_7,24883,Daniel-Powter-Bad-Day-Instrument.mp3,41,audio_slider,,,,,50,
,survey-multi-choice,17,164149,0.0-17.0-0.0,1,1,2023-07-28 12:39:17,6ad40e38acdca90a181c9c1a7b1b6550,193.163.223.60,"Mozilla/5.0 (Macintosh; Intel Mac OS X 10_15_7) AppleWebKit/605.1.15 (KHTML, like Gecko) Version/16.5.2 Safari/605.1.15",Macintosh,Safari,16.5.2,OS X,10_15_7,3098,,"{""familiarity"":""yes""}",multi_choice,,,,,,[0]
true,preload,18,164165,0.0-18.0,1,1,2023-07-28 12:39:17,6ad40e38acdca90a181c9c1a7b1b6550,193.163.223.60,"Mozilla/5.0 (Macintosh; Intel Mac OS X 10_15_7) AppleWebKit/605.1.15 (KHTML, like Gecko) Version/16.5.2 Safari/605.1.15",Macintosh,Safari,16.5.2,OS X,10_15_7,,,,,false,[],[],[],,
,audio-slider-response,19,202458,0.0-19.0-0.0,1,1,2023-07-28 12:39:17,6ad40e38acdca90a181c9c1a7b1b6550,193.163.223.60,"Mozilla/5.0 (Macintosh; Intel Mac OS X 10_15_7) AppleWebKit/605.1.15 (KHTML, like Gecko) Version/16.5.2 Safari/605.1.15",Macintosh,Safari,16.5.2,OS X,10_15_7,38087,Rick-Astley-Never-Gonna-Give-You.mp3,57,audio_slider,,,,,50,
