success,trial_type,trial_index,time_elapsed,internal_node_id,run_id,condition,recorded_at,source_code_version,ip,user_agent,device,browser,browser_version,platform,platform_version,rt,stimulus,response,task,timeout,failed_images,failed_audio,failed_video,slider_start,question_order
true,fullscreen,0,3307,0.0-0.0,1,1,2023-07-28 12:39:51,abf82dad4018d89b46f04ecbbbe65d6b,,"Mozilla/5.0 (Macintosh; Intel Mac OS X 10_15_7) AppleWebKit/605.1.15 (KHTML, like Gecko) Version/16.2 Safari/605.1.15",Macintosh,Safari,16.2,OS X,10_15_7,,,,,,,,,,
,html-button-response,1,4722,0.0-1.0,1,1,2023-07-28 12:39:51,abf82dad4018d89b46f04ecbbbe65d6b,,"Mozilla/5.0 (Macintosh; Intel Mac OS X 10_15_7) AppleWebKit/605.1.15 (KHTML, like Gecko) Version/16.2 Safari/605.1.15",Macintosh,Safari,16.2,OS X,10_15_7,1410,Welcome to the experiment,0,,,,,,,
,html-button-response,2,11172,0.0-2.0,1,1,2023-07-28 12:39:51,abf82dad4018d89b46f04ecbbbe65d6b,,"Mozilla/5.0 (Macintosh; Intel Mac OS X 10_15_7) AppleWebKit/605.1.15 (KHTML, like Gecko) Version/16.2 Safari/605.1.15",Macintosh,Safari,16.2,OS X,10_15_7,6448,"
        <p>In this experiment, you will hear some music excerpts.</p>
        <p> After each track, you must indicate which of the selected colours you associated with the music.</p>",0,instruction,,,,,,
true,preload,3,11173,0.0-3.0,1,1,2023-07-28 12:39:51,abf82dad4018d89b46f04ecbbbe65d6b,,"Mozilla/5.0 (Macintosh; Intel Mac OS X 10_15_7) AppleWebKit/605.1.15 (KHTML, like Gecko) Version/16.2 Safari/605.1.15",Macintosh,Safari,16.2,OS X,10_15_7,,,,,false,[],[],[],,
,audio-button-response,4,23375,0.0-4.0-0.0,1,1,2023-07-28 12:39:51,abf82dad4018d89b46f04ecbbbe65d6b,,"Mozilla/5.0 (Macintosh; Intel Mac OS X 10_15_7) AppleWebKit/605.1.15 (KHTML, like Gecko) Version/16.2 Safari/605.1.15",Macintosh,Safari,16.2,OS X,10_15_7,11360,song1.wav,0,audio_button,,,,,,
,image-button-response,5,28022,0.0-4.0-1.0,1,1,2023-07-28 12:39:51,abf82dad4018d89b46f04ecbbbe65d6b,,"Mozilla/5.0 (Macintosh; Intel Mac OS X 10_15_7) AppleWebKit/605.1.15 (KHTML, like Gecko) Version/16.2 Safari/605.1.15",Macintosh,Safari,16.2,OS X,10_15_7,4643,col.png,3,image_button,,,,,,
,html-slider-response,6,38783,0.0-4.0-2.0,1,1,2023-07-28 12:39:51,abf82dad4018d89b46f04ecbbbe65d6b,,"Mozilla/5.0 (Macintosh; Intel Mac OS X 10_15_7) AppleWebKit/605.1.15 (KHTML, like Gecko) Version/16.2 Safari/605.1.15",Macintosh,Safari,16.2,OS X,10_15_7,10759,<p>How familiar was this song to you ?</p>,96,text_slider_response,,,,,50,
,audio-button-response,7,51604,0.0-4.0-0.1,1,1,2023-07-28 12:39:51,abf82dad4018d89b46f04ecbbbe65d6b,,"Mozilla/5.0 (Macintosh; Intel Mac OS X 10_15_7) AppleWebKit/605.1.15 (KHTML, like Gecko) Version/16.2 Safari/605.1.15",Macintosh,Safari,16.2,OS X,10_15_7,12128,song2.wav,0,audio_button,,,,,,
,image-button-response,8,54111,0.0-4.0-1.1,1,1,2023-07-28 12:39:51,abf82dad4018d89b46f04ecbbbe65d6b,,"Mozilla/5.0 (Macintosh; Intel Mac OS X 10_15_7) AppleWebKit/605.1.15 (KHTML, like Gecko) Version/16.2 Safari/605.1.15",Macintosh,Safari,16.2,OS X,10_15_7,2505,col.png,2,image_button,,,,,,
,html-slider-response,9,63953,0.0-4.0-2.1,1,1,2023-07-28 12:39:51,abf82dad4018d89b46f04ecbbbe65d6b,,"Mozilla/5.0 (Macintosh; Intel Mac OS X 10_15_7) AppleWebKit/605.1.15 (KHTML, like Gecko) Version/16.2 Safari/605.1.15",Macintosh,Safari,16.2,OS X,10_15_7,9841,<p>How familiar was this song to you ?</p>,100,text_slider_response,,,,,50,
,audio-button-response,10,76758,0.0-4.0-0.2,1,1,2023-07-28 12:39:51,abf82dad4018d89b46f04ecbbbe65d6b,,"Mozilla/5.0 (Macintosh; Intel Mac OS X 10_15_7) AppleWebKit/605.1.15 (KHTML, like Gecko) Version/16.2 Safari/605.1.15",Macintosh,Safari,16.2,OS X,10_15_7,12064,song3.wav,0,audio_button,,,,,,
,image-button-response,11,85792,0.0-4.0-1.2,1,1,2023-07-28 12:39:51,abf82dad4018d89b46f04ecbbbe65d6b,,"Mozilla/5.0 (Macintosh; Intel Mac OS X 10_15_7) AppleWebKit/605.1.15 (KHTML, like Gecko) Version/16.2 Safari/605.1.15",Macintosh,Safari,16.2,OS X,10_15_7,9031,col.png,3,image_button,,,,,,
,html-slider-response,12,90089,0.0-4.0-2.2,1,1,2023-07-28 12:39:51,abf82dad4018d89b46f04ecbbbe65d6b,,"Mozilla/5.0 (Macintosh; Intel Mac OS X 10_15_7) AppleWebKit/605.1.15 (KHTML, like Gecko) Version/16.2 Safari/605.1.15",Macintosh,Safari,16.2,OS X,10_15_7,4296,<p>How familiar was this song to you ?</p>,62,text_slider_response,,,,,50,
,audio-button-response,13,105725,0.0-4.0-0.3,1,1,2023-07-28 12:39:51,abf82dad4018d89b46f04ecbbbe65d6b,,"Mozilla/5.0 (Macintosh; Intel Mac OS X 10_15_7) AppleWebKit/605.1.15 (KHTML, like Gecko) Version/16.2 Safari/605.1.15",Macintosh,Safari,16.2,OS X,10_15_7,15040,song4.wav,0,audio_button,,,,,,
,image-button-response,14,180977,0.0-4.0-1.3,1,1,2023-07-28 12:39:51,abf82dad4018d89b46f04ecbbbe65d6b,,"Mozilla/5.0 (Macintosh; Intel Mac OS X 10_15_7) AppleWebKit/605.1.15 (KHTML, like Gecko) Version/16.2 Safari/605.1.15",Macintosh,Safari,16.2,OS X,10_15_7,75250,col.png,4,image_button,,,,,,
,html-slider-response,15,182776,0.0-4.0-2.3,1,1,2023-07-28 12:39:51,abf82dad4018d89b46f04ecbbbe65d6b,,"Mozilla/5.0 (Macintosh; Intel Mac OS X 10_15_7) AppleWebKit/605.1.15 (KHTML, like Gecko) Version/16.2 Safari/605.1.15",Macintosh,Safari,16.2,OS X,10_15_7,1798,<p>How familiar was this song to you ?</p>,79,text_slider_response,,,,,50,
,survey-multi-choice,16,197711,0.0-5.0-0.0,1,1,2023-07-28 12:39:51,abf82dad4018d89b46f04ecbbbe65d6b,,"Mozilla/5.0 (Macintosh; Intel Mac OS X 10_15_7) AppleWebKit/605.1.15 (KHTML, like Gecko) Version/16.2 Safari/605.1.15",Macintosh,Safari,16.2,OS X,10_15_7,14932,,"{""age"":""18 - 25"",""sex"":""Green""}",multi_choice,,,,,,"[0,1,2]"
,html-slider-response,17,215711,0.0-6.0,1,1,2023-07-28 12:39:51,abf82dad4018d89b46f04ecbbbe65d6b,,"Mozilla/5.0 (Macintosh; Intel Mac OS X 10_15_7) AppleWebKit/605.1.15 (KHTML, like Gecko) Version/16.2 Safari/605.1.15",Macintosh,Safari,16.2,OS X,10_15_7,17996,<p>Do you regard yourself as a visually creative person??</p>,66,text_slider_response,,,,,50,
,html-slider-response,18,225626,0.0-7.0,1,1,2023-07-28 12:39:51,abf82dad4018d89b46f04ecbbbe65d6b,,"Mozilla/5.0 (Macintosh; Intel Mac OS X 10_15_7) AppleWebKit/605.1.15 (KHTML, like Gecko) Version/16.2 Safari/605.1.15",Macintosh,Safari,16.2,OS X,10_15_7,9913,<p>Do you regard yourself as a musician??</p>,52,text_slider_response,,,,,50,
true,fullscreen,0,2422,0.0-0.0,15,1,2023-07-28 12:52:39,abf82dad4018d89b46f04ecbbbe65d6b,,"Mozilla/5.0 (Windows NT 10.0; Win64; x64) AppleWebKit/537.36 (KHTML, like Gecko) Chrome/115.0.0.0 Safari/537.36",WebKit,Chrome,115.0.0.0,Windows,10.0,,,,,,,,,,
,html-button-response,1,3730,0.0-1.0,15,1,2023-07-28 12:52:39,abf82dad4018d89b46f04ecbbbe65d6b,,"Mozilla/5.0 (Windows NT 10.0; Win64; x64) AppleWebKit/537.36 (KHTML, like Gecko) Chrome/115.0.0.0 Safari/537.36",WebKit,Chrome,115.0.0.0,Windows,10.0,1303,Welcome to the experiment,0,,,,,,,
,html-button-response,2,7506,0.0-2.0,15,1,2023-07-28 12:52:39,abf82dad4018d89b46f04ecbbbe65d6b,,"Mozilla/5.0 (Windows NT 10.0; Win64; x64) AppleWebKit/537.36 (KHTML, like Gecko) Chrome/115.0.0.0 Safari/537.36",WebKit,Chrome,115.0.0.0,Windows,10.0,3773,"
        <p>In this experiment, you will hear some music excerpts.</p>
        <p> After each track, you must indicate which of the selected colours you associated with the music.</p>",0,instruction,,,,,,
true,preload,3,7507,0.0-3.0,15,1,2023-07-28 12:52:39,abf82dad4018d89b46f04ecbbbe65d6b,,"Mozilla/5.0 (Windows NT 10.0; Win64; x64) AppleWebKit/537.36 (KHTML, like Gecko) Chrome/115.0.0.0 Safari/537.36",WebKit,Chrome,115.0.0.0,Windows,10.0,,,,,false,[],[],[],,
,audio-button-response,4,21133,0.0-4.0-0.0,15,1,2023-07-28 12:52:39,abf82dad4018d89b46f04ecbbbe65d6b,,"Mozilla/5.0 (Windows NT 10.0; Win64; x64) AppleWebKit/537.36 (KHTML, like Gecko) Chrome/115.0.0.0 Safari/537.36",WebKit,Chrome,115.0.0.0,Windows,10.0,11957,song1.wav,0,audio_button,,,,,,
,image-button-response,5,22930,0.0-4.0-1.0,15,1,2023-07-28 12:52:39,abf82dad4018d89b46f04ecbbbe65d6b,,"Mozilla/5.0 (Windows NT 10.0; Win64; x64) AppleWebKit/537.36 (KHTML, like Gecko) Chrome/115.0.0.0 Safari/537.36",WebKit,Chrome,115.0.0.0,Windows,10.0,1792,col.png,3,image_button,,,,,,
,html-slider-response,6,27922,0.0-4.0-2.0,15,1,2023-07-28 12:52:39,abf82dad4018d89b46f04ecbbbe65d6b,,"Mozilla/5.0 (Windows NT 10.0; Win64; x64) AppleWebKit/537.36 (KHTML, like Gecko) Chrome/115.0.0.0 Safari/537.36",WebKit,Chrome,115.0.0.0,Windows,10.0,4988,<p>How familiar was this song to you ?</p>,0,text_slider_response,,,,,50,
,audio-button-response,7,40390,0.0-4.0-0.1,15,1,2023-07-28 12:52:39,abf82dad4018d89b46f04ecbbbe65d6b,,"Mozilla/5.0 (Windows NT 10.0; Win64; x64) AppleWebKit/537.36 (KHTML, like Gecko) Chrome/115.0.0.0 Safari/537.36",WebKit,Chrome,115.0.0.0,Windows,10.0,11712,song3.wav,0,audio_button,,,,,,
,image-button-response,8,43169,0.0-4.0-1.1,15,1,2023-07-28 12:52:39,abf82dad4018d89b46f04ecbbbe65d6b,,"Mozilla/5.0 (Windows NT 10.0; Win64; x64) AppleWebKit/537.36 (KHTML, like Gecko) Chrome/115.0.0.0 Safari/537.36",WebKit,Chrome,115.0.0.0,Windows,10.0,2777,col.png,4,image_button,,,,,,
,html-slider-response,9,46064,0.0-4.0-2.1,15,1,2023-07-28 12:52:39,abf82dad4018d89b46f04ecbbbe65d6b,,"Mozilla/5.0 (Windows NT 10.0; Win64; x64) AppleWebKit/537.36 (KHTML, like Gecko) Chrome/115.0.0.0 Safari/537.36",WebKit,Chrome,115.0.0.0,Windows,10.0,2893,<p>How familiar was this song to you ?</p>,100,text_slider_response,,,,,50,
,audio-button-response,10,58668,0.0-4.0-0.2,15,1,2023-07-28 12:52:39,abf82dad4018d89b46f04ecbbbe65d6b,,"Mozilla/5.0 (Windows NT 10.0; Win64; x64) AppleWebKit/537.36 (KHTML, like Gecko) Chrome/115.0.0.0 Safari/537.36",WebKit,Chrome,115.0.0.0,Windows,10.0,12171,song4.wav,0,audio_button,,,,,,
,image-button-response,11,63012,0.0-4.0-1.2,15,1,2023-07-28 12:52:39,abf82dad4018d89b46f04ecbbbe65d6b,,"Mozilla/5.0 (Windows NT 10.0; Win64; x64) AppleWebKit/537.36 (KHTML, like Gecko) Chrome/115.0.0.0 Safari/537.36",WebKit,Chrome,115.0.0.0,Windows,10.0,4339,col.png,5,image_button,,,,,,
,html-slider-response,12,65559,0.0-4.0-2.2,15,1,2023-07-28 12:52:39,abf82dad4018d89b46f04ecbbbe65d6b,,"Mozilla/5.0 (Windows NT 10.0; Win64; x64) AppleWebKit/537.36 (KHTML, like Gecko) Chrome/115.0.0.0 Safari/537.36",WebKit,Chrome,115.0.0.0,Windows,10.0,2545,<p>How familiar was this song to you ?</p>,100,text_slider_response,,,,,50,
,audio-button-response,13,78822,0.0-4.0-0.3,15,1,2023-07-28 12:52:39,abf82dad4018d89b46f04ecbbbe65d6b,,"Mozilla/5.0 (Windows NT 10.0; Win64; x64) AppleWebKit/537.36 (KHTML, like Gecko) Chrome/115.0.0.0 Safari/537.36",WebKit,Chrome,115.0.0.0,Windows,10.0,12608,song2.wav,0,audio_button,,,,,,
,image-button-response,14,81938,0.0-4.0-1.3,15,1,2023-07-28 12:52:39,abf82dad4018d89b46f04ecbbbe65d6b,,"Mozilla/5.0 (Windows NT 10.0; Win64; x64) AppleWebKit/537.36 (KHTML, like Gecko) Chrome/115.0.0.0 Safari/537.36",WebKit,Chrome,115.0.0.0,Windows,10.0,3113,col.png,1,image_button,,,,,,
,html-slider-response,15,84883,0.0-4.0-2.3,15,1,2023-07-28 12:52:39,abf82dad4018d89b46f04ecbbbe65d6b,,"Mozilla/5.0 (Windows NT 10.0; Win64; x64) AppleWebKit/537.36 (KHTML, like Gecko) Chrome/115.0.0.0 Safari/537.36",WebKit,Chrome,115.0.0.0,Windows,10.0,2944,<p>How familiar was this song to you ?</p>,99,text_slider_response,,,,,50,
,survey-multi-choice,16,94289,0.0-5.0-0.0,15,1,2023-07-28 12:52:39,abf82dad4018d89b46f04ecbbbe65d6b,,"Mozilla/5.0 (Windows NT 10.0; Win64; x64) AppleWebKit/537.36 (KHTML, like Gecko) Chrome/115.0.0.0 Safari/537.36",WebKit,Chrome,115.0.0.0,Windows,10.0,9400,,"{""age"":""18 - 25"",""sex"":""Red""}",multi_choice,,,,,,"[0,1,2]"
,html-slider-response,17,98612,0.0-6.0,15,1,2023-07-28 12:52:39,abf82dad4018d89b46f04ecbbbe65d6b,,"Mozilla/5.0 (Windows NT 10.0; Win64; x64) AppleWebKit/537.36 (KHTML, like Gecko) Chrome/115.0.0.0 Safari/537.36",WebKit,Chrome,115.0.0.0,Windows,10.0,4316,<p>Do you regard yourself as a visually creative person??</p>,82,text_slider_response,,,,,50,
,html-slider-response,18,101712,0.0-7.0,15,1,2023-07-28 12:52:39,abf82dad4018d89b46f04ecbbbe65d6b,,"Mozilla/5.0 (Windows NT 10.0; Win64; x64) AppleWebKit/537.36 (KHTML, like Gecko) Chrome/115.0.0.0 Safari/537.36",WebKit,Chrome,115.0.0.0,Windows,10.0,3096,<p>Do you regard yourself as a musician??</p>,16,text_slider_response,,,,,50,
true,fullscreen,0,2050,0.0-0.0,11,1,2023-07-28 12:50:01,abf82dad4018d89b46f04ecbbbe65d6b,,"Mozilla/5.0 (Macintosh; Intel Mac OS X 10_15_7) AppleWebKit/537.36 (KHTML, like Gecko) Chrome/114.0.0.0 Safari/537.36",Macintosh,Chrome,114.0.0.0,OS X,10_15_7,,,,,,,,,,
,html-button-response,1,2939,0.0-1.0,11,1,2023-07-28 12:50:01,abf82dad4018d89b46f04ecbbbe65d6b,,"Mozilla/5.0 (Macintosh; Intel Mac OS X 10_15_7) AppleWebKit/537.36 (KHTML, like Gecko) Chrome/114.0.0.0 Safari/537.36",Macintosh,Chrome,114.0.0.0,OS X,10_15_7,886,Welcome to the experiment,0,,,,,,,
,html-button-response,2,7447,0.0-2.0,11,1,2023-07-28 12:50:01,abf82dad4018d89b46f04ecbbbe65d6b,,"Mozilla/5.0 (Macintosh; Intel Mac OS X 10_15_7) AppleWebKit/537.36 (KHTML, like Gecko) Chrome/114.0.0.0 Safari/537.36",Macintosh,Chrome,114.0.0.0,OS X,10_15_7,4508,"
        <p>In this experiment, you will hear some music excerpts.</p>
        <p> After each track, you must indicate which of the selected colours you associated with the music.</p>",0,instruction,,,,,,
true,preload,3,7448,0.0-3.0,11,1,2023-07-28 12:50:01,abf82dad4018d89b46f04ecbbbe65d6b,,"Mozilla/5.0 (Macintosh; Intel Mac OS X 10_15_7) AppleWebKit/537.36 (KHTML, like Gecko) Chrome/114.0.0.0 Safari/537.36",Macintosh,Chrome,114.0.0.0,OS X,10_15_7,,,,,false,[],[],[],,
,audio-button-response,4,18551,0.0-4.0-0.0,11,1,2023-07-28 12:50:01,abf82dad4018d89b46f04ecbbbe65d6b,,"Mozilla/5.0 (Macintosh; Intel Mac OS X 10_15_7) AppleWebKit/537.36 (KHTML, like Gecko) Chrome/114.0.0.0 Safari/537.36",Macintosh,Chrome,114.0.0.0,OS X,10_15_7,10987,song1.wav,0,audio_button,,,,,,
,image-button-response,5,25093,0.0-4.0-1.0,11,1,2023-07-28 12:50:01,abf82dad4018d89b46f04ecbbbe65d6b,,"Mozilla/5.0 (Macintosh; Intel Mac OS X 10_15_7) AppleWebKit/537.36 (KHTML, like Gecko) Chrome/114.0.0.0 Safari/537.36",Macintosh,Chrome,114.0.0.0,OS X,10_15_7,6539,col.png,2,image_button,,,,,,
,html-slider-response,6,29620,0.0-4.0-2.0,11,1,2023-07-28 12:50:01,abf82dad4018d89b46f04ecbbbe65d6b,,"Mozilla/5.0 (Macintosh; Intel Mac OS X 10_15_7) AppleWebKit/537.36 (KHTML, like Gecko) Chrome/114.0.0.0 Safari/537.36",Macintosh,Chrome,114.0.0.0,OS X,10_15_7,4525,<p>How familiar was this song to you ?</p>,65,text_slider_response,,,,,50,
,audio-button-response,7,40526,0.0-4.0-0.1,11,1,2023-07-28 12:50:01,abf82dad4018d89b46f04ecbbbe65d6b,,"Mozilla/5.0 (Macintosh; Intel Mac OS X 10_15_7) AppleWebKit/537.36 (KHTML, like Gecko) Chrome/114.0.0.0 Safari/537.36",Macintosh,Chrome,114.0.0.0,OS X,10_15_7,10805,song3.wav,0,audio_button,,,,,,
,image-button-response,8,49638,0.0-4.0-1.1,11,1,2023-07-28 12:50:01,abf82dad4018d89b46f04ecbbbe65d6b,,"Mozilla/5.0 (Macintosh; Intel Mac OS X 10_15_7) AppleWebKit/537.36 (KHTML, like Gecko) Chrome/114.0.0.0 Safari/537.36",Macintosh,Chrome,114.0.0.0,OS X,10_15_7,9111,col.png,0,image_button,,,,,,
,html-slider-response,9,51445,0.0-4.0-2.1,11,1,2023-07-28 12:50:01,abf82dad4018d89b46f04ecbbbe65d6b,,"Mozilla/5.0 (Macintosh; Intel Mac OS X 10_15_7) AppleWebKit/537.36 (KHTML, like Gecko) Chrome/114.0.0.0 Safari/537.36",Macintosh,Chrome,114.0.0.0,OS X,10_15_7,1806,<p>How familiar was this song to you ?</p>,89,text_slider_response,,,,,50,
,audio-button-response,10,63485,0.0-4.0-0.2,11,1,2023-07-28 12:50:01,abf82dad4018d89b46f04ecbbbe65d6b,,"Mozilla/5.0 (Macintosh; Intel Mac OS X 10_15_7) AppleWebKit/537.36 (KHTML, like Gecko) Chrome/114.0.0.0 Safari/537.36",Macintosh,Chrome,114.0.0.0,OS X,10_15_7,11717,song2.wav,0,audio_button,,,,,,
,image-button-response,11,66470,0.0-4.0-1.2,11,1,2023-07-28 12:50:01,abf82dad4018d89b46f04ecbbbe65d6b,,"Mozilla/5.0 (Macintosh; Intel Mac OS X 10_15_7) AppleWebKit/537.36 (KHTML, like Gecko) Chrome/114.0.0.0 Safari/537.36",Macintosh,Chrome,114.0.0.0,OS X,10_15_7,2984,col.png,4,image_button,,,,,,
,html-slider-response,12,68618,0.0-4.0-2.2,11,1,2023-07-28 12:50:01,abf82dad4018d89b46f04ecbbbe65d6b,,"Mozilla/5.0 (Macintosh; Intel Mac OS X 10_15_7) AppleWebKit/537.36 (KHTML, like Gecko) Chrome/114.0.0.0 Safari/537.36",Macintosh,Chrome,114.0.0.0,OS X,10_15_7,2147,<p>How familiar was this song to you ?</p>,93,text_slider_response,,,,,50,
,audio-button-response,13,79760,0.0-4.0-0.3,11,1,2023-07-28 12:50:01,abf82dad4018d89b46f04ecbbbe65d6b,,"Mozilla/5.0 (Macintosh; Intel Mac OS X 10_15_7) AppleWebKit/537.36 (KHTML, like Gecko) Chrome/114.0.0.0 Safari/537.36",Macintosh,Chrome,114.0.0.0,OS X,10_15_7,11035,song4.wav,0,audio_button,,,,,,
,image-button-response,14,89067,0.0-4.0-1.3,11,1,2023-07-28 12:50:01,abf82dad4018d89b46f04ecbbbe65d6b,,"Mozilla/5.0 (Macintosh; Intel Mac OS X 10_15_7) AppleWebKit/537.36 (KHTML, like Gecko) Chrome/114.0.0.0 Safari/537.36",Macintosh,Chrome,114.0.0.0,OS X,10_15_7,9306,col.png,0,image_button,,,,,,
,html-slider-response,15,90769,0.0-4.0-2.3,11,1,2023-07-28 12:50:01,abf82dad4018d89b46f04ecbbbe65d6b,,"Mozilla/5.0 (Macintosh; Intel Mac OS X 10_15_7) AppleWebKit/537.36 (KHTML, like Gecko) Chrome/114.0.0.0 Safari/537.36",Macintosh,Chrome,114.0.0.0,OS X,10_15_7,1701,<p>How familiar was this song to you ?</p>,84,text_slider_response,,,,,50,
,survey-multi-choice,16,102720,0.0-5.0-0.0,11,1,2023-07-28 12:50:01,abf82dad4018d89b46f04ecbbbe65d6b,,"Mozilla/5.0 (Macintosh; Intel Mac OS X 10_15_7) AppleWebKit/537.36 (KHTML, like Gecko) Chrome/114.0.0.0 Safari/537.36",Macintosh,Chrome,114.0.0.0,OS X,10_15_7,11947,,"{""age"":""18 - 25"",""sex"":""Blue""}",multi_choice,,,,,,"[0,1,2]"
,html-slider-response,17,106334,0.0-6.0,11,1,2023-07-28 12:50:01,abf82dad4018d89b46f04ecbbbe65d6b,,"Mozilla/5.0 (Macintosh; Intel Mac OS X 10_15_7) AppleWebKit/537.36 (KHTML, like Gecko) Chrome/114.0.0.0 Safari/537.36",Macintosh,Chrome,114.0.0.0,OS X,10_15_7,3612,<p>Do you regard yourself as a visually creative person??</p>,75,text_slider_response,,,,,50,
,html-slider-response,18,109452,0.0-7.0,11,1,2023-07-28 12:50:01,abf82dad4018d89b46f04ecbbbe65d6b,,"Mozilla/5.0 (Macintosh; Intel Mac OS X 10_15_7) AppleWebKit/537.36 (KHTML, like Gecko) Chrome/114.0.0.0 Safari/537.36",Macintosh,Chrome,114.0.0.0,OS X,10_15_7,3116,<p>Do you regard yourself as a musician??</p>,75,text_slider_response,,,,,50,
true,fullscreen,19,110462,0.0-8.0,11,1,2023-07-28 12:50:01,abf82dad4018d89b46f04ecbbbe65d6b,,"Mozilla/5.0 (Macintosh; Intel Mac OS X 10_15_7) AppleWebKit/537.36 (KHTML, like Gecko) Chrome/114.0.0.0 Safari/537.36",Macintosh,Chrome,114.0.0.0,OS X,10_15_7,,,,,,,,,,
,html-keyboard-response,20,111246,0.0-9.0,11,1,2023-07-28 12:50:01,abf82dad4018d89b46f04ecbbbe65d6b,,"Mozilla/5.0 (Macintosh; Intel Mac OS X 10_15_7) AppleWebKit/537.36 (KHTML, like Gecko) Chrome/114.0.0.0 Safari/537.36",Macintosh,Chrome,114.0.0.0,OS X,10_15_7,782,Thank you for your participation. You may now close the window.,meta,,,,,,,
true,fullscreen,0,2381,0.0-0.0,17,1,2023-07-28 12:58:25,abf82dad4018d89b46f04ecbbbe65d6b,,Mozilla/5.0 (Macintosh; Intel Mac OS X 10.15; rv:109.0) Gecko/20100101 Firefox/115.0,Macintosh,Firefox,115.0,OS X,10.15,,,,,,,,,,
,html-button-response,1,5842,0.0-1.0,17,1,2023-07-28 12:58:25,abf82dad4018d89b46f04ecbbbe65d6b,,Mozilla/5.0 (Macintosh; Intel Mac OS X 10.15; rv:109.0) Gecko/20100101 Firefox/115.0,Macintosh,Firefox,115.0,OS X,10.15,3458,Welcome to the experiment,0,,,,,,,
,html-button-response,2,7523,0.0-2.0,17,1,2023-07-28 12:58:25,abf82dad4018d89b46f04ecbbbe65d6b,,Mozilla/5.0 (Macintosh; Intel Mac OS X 10.15; rv:109.0) Gecko/20100101 Firefox/115.0,Macintosh,Firefox,115.0,OS X,10.15,1679,"
        <p>In this experiment, you will hear some music excerpts.</p>
        <p> After each track, you must indicate which of the selected colours you associated with the music.</p>",0,instruction,,,,,,
true,preload,3,7527,0.0-3.0,17,1,2023-07-28 12:58:25,abf82dad4018d89b46f04ecbbbe65d6b,,Mozilla/5.0 (Macintosh; Intel Mac OS X 10.15; rv:109.0) Gecko/20100101 Firefox/115.0,Macintosh,Firefox,115.0,OS X,10.15,,,,,false,[],[],[],,
,audio-button-response,4,20080,0.0-4.0-0.0,17,1,2023-07-28 12:58:25,abf82dad4018d89b46f04ecbbbe65d6b,,Mozilla/5.0 (Macintosh; Intel Mac OS X 10.15; rv:109.0) Gecko/20100101 Firefox/115.0,Macintosh,Firefox,115.0,OS X,10.15,12203,song3.wav,0,audio_button,,,,,,
,image-button-response,5,34210,0.0-4.0-1.0,17,1,2023-07-28 12:58:25,abf82dad4018d89b46f04ecbbbe65d6b,,Mozilla/5.0 (Macintosh; Intel Mac OS X 10.15; rv:109.0) Gecko/20100101 Firefox/115.0,Macintosh,Firefox,115.0,OS X,10.15,14125,col.png,5,image_button,,,,,,
,html-slider-response,6,39930,0.0-4.0-2.0,17,1,2023-07-28 12:58:25,abf82dad4018d89b46f04ecbbbe65d6b,,Mozilla/5.0 (Macintosh; Intel Mac OS X 10.15; rv:109.0) Gecko/20100101 Firefox/115.0,Macintosh,Firefox,115.0,OS X,10.15,5718,<p>How familiar was this song to you ?</p>,53,text_slider_response,,,,,50,
,audio-button-response,7,55095,0.0-4.0-0.1,17,1,2023-07-28 12:58:25,abf82dad4018d89b46f04ecbbbe65d6b,,Mozilla/5.0 (Macintosh; Intel Mac OS X 10.15; rv:109.0) Gecko/20100101 Firefox/115.0,Macintosh,Firefox,115.0,OS X,10.15,14896,song2.wav,0,audio_button,,,,,,
,image-button-response,8,64513,0.0-4.0-1.1,17,1,2023-07-28 12:58:25,abf82dad4018d89b46f04ecbbbe65d6b,,Mozilla/5.0 (Macintosh; Intel Mac OS X 10.15; rv:109.0) Gecko/20100101 Firefox/115.0,Macintosh,Firefox,115.0,OS X,10.15,9416,col.png,1,image_button,,,,,,
,html-slider-response,9,67607,0.0-4.0-2.1,17,1,2023-07-28 12:58:25,abf82dad4018d89b46f04ecbbbe65d6b,,Mozilla/5.0 (Macintosh; Intel Mac OS X 10.15; rv:109.0) Gecko/20100101 Firefox/115.0,Macintosh,Firefox,115.0,OS X,10.15,3093,<p>How familiar was this song to you ?</p>,54,text_slider_response,,,,,50,
,audio-button-response,10,79140,0.0-4.0-0.2,17,1,2023-07-28 12:58:25,abf82dad4018d89b46f04ecbbbe65d6b,,Mozilla/5.0 (Macintosh; Intel Mac OS X 10.15; rv:109.0) Gecko/20100101 Firefox/115.0,Macintosh,Firefox,115.0,OS X,10.15,11237,song4.wav,0,audio_button,,,,,,
,image-button-response,11,87293,0.0-4.0-1.2,17,1,2023-07-28 12:58:25,abf82dad4018d89b46f04ecbbbe65d6b,,Mozilla/5.0 (Macintosh; Intel Mac OS X 10.15; rv:109.0) Gecko/20100101 Firefox/115.0,Macintosh,Firefox,115.0,OS X,10.15,8148,col.png,1,image_button,,,,,,
,html-slider-response,12,89954,0.0-4.0-2.2,17,1,2023-07-28 12:58:25,abf82dad4018d89b46f04ecbbbe65d6b,,Mozilla/5.0 (Macintosh; Intel Mac OS X 10.15; rv:109.0) Gecko/20100101 Firefox/115.0,Macintosh,Firefox,115.0,OS X,10.15,2659,<p>How familiar was this song to you ?</p>,54,text_slider_response,,,,,50,
,audio-button-response,13,101655,0.0-4.0-0.3,17,1,2023-07-28 12:58:25,abf82dad4018d89b46f04ecbbbe65d6b,,Mozilla/5.0 (Macintosh; Intel Mac OS X 10.15; rv:109.0) Gecko/20100101 Firefox/115.0,Macintosh,Firefox,115.0,OS X,10.15,11424,song1.wav,0,audio_button,,,,,,
,image-button-response,14,109156,0.0-4.0-1.3,17,1,2023-07-28 12:58:25,abf82dad4018d89b46f04ecbbbe65d6b,,Mozilla/5.0 (Macintosh; Intel Mac OS X 10.15; rv:109.0) Gecko/20100101 Firefox/115.0,Macintosh,Firefox,115.0,OS X,10.15,7499,col.png,0,image_button,,,,,,
,html-slider-response,15,112530,0.0-4.0-2.3,17,1,2023-07-28 12:58:25,abf82dad4018d89b46f04ecbbbe65d6b,,Mozilla/5.0 (Macintosh; Intel Mac OS X 10.15; rv:109.0) Gecko/20100101 Firefox/115.0,Macintosh,Firefox,115.0,OS X,10.15,3372,<p>How familiar was this song to you ?</p>,100,text_slider_response,,,,,50,
,survey-multi-choice,16,123999,0.0-5.0-0.0,17,1,2023-07-28 12:58:25,abf82dad4018d89b46f04ecbbbe65d6b,,Mozilla/5.0 (Macintosh; Intel Mac OS X 10.15; rv:109.0) Gecko/20100101 Firefox/115.0,Macintosh,Firefox,115.0,OS X,10.15,11467,,"{""age"":""41 or older"",""sex"":""Black""}",multi_choice,,,,,,"[0,1,2]"
,html-slider-response,17,129098,0.0-6.0,17,1,2023-07-28 12:58:25,abf82dad4018d89b46f04ecbbbe65d6b,,Mozilla/5.0 (Macintosh; Intel Mac OS X 10.15; rv:109.0) Gecko/20100101 Firefox/115.0,Macintosh,Firefox,115.0,OS X,10.15,5097,<p>Do you regard yourself as a visually creative person??</p>,76,text_slider_response,,,,,50,
,html-slider-response,18,133172,0.0-7.0,17,1,2023-07-28 12:58:25,abf82dad4018d89b46f04ecbbbe65d6b,,Mozilla/5.0 (Macintosh; Intel Mac OS X 10.15; rv:109.0) Gecko/20100101 Firefox/115.0,Macintosh,Firefox,115.0,OS X,10.15,4072,<p>Do you regard yourself as a musician??</p>,89,text_slider_response,,,,,50,
true,fullscreen,19,134177,0.0-8.0,17,1,2023-07-28 12:58:25,abf82dad4018d89b46f04ecbbbe65d6b,,Mozilla/5.0 (Macintosh; Intel Mac OS X 10.15; rv:109.0) Gecko/20100101 Firefox/115.0,Macintosh,Firefox,115.0,OS X,10.15,,,,,,,,,,
true,fullscreen,0,1931,0.0-0.0,2,1,2023-07-28 12:40:22,abf82dad4018d89b46f04ecbbbe65d6b,,"Mozilla/5.0 (Macintosh; Intel Mac OS X 10_15_7) AppleWebKit/605.1.15 (KHTML, like Gecko) Version/16.1 Safari/605.1.15",Macintosh,Safari,16.1,OS X,10_15_7,,,,,,,,,,
,html-button-response,1,2848,0.0-1.0,2,1,2023-07-28 12:40:22,abf82dad4018d89b46f04ecbbbe65d6b,,"Mozilla/5.0 (Macintosh; Intel Mac OS X 10_15_7) AppleWebKit/605.1.15 (KHTML, like Gecko) Version/16.1 Safari/605.1.15",Macintosh,Safari,16.1,OS X,10_15_7,911,Welcome to the experiment,0,,,,,,,
,html-button-response,2,6450,0.0-2.0,2,1,2023-07-28 12:40:22,abf82dad4018d89b46f04ecbbbe65d6b,,"Mozilla/5.0 (Macintosh; Intel Mac OS X 10_15_7) AppleWebKit/605.1.15 (KHTML, like Gecko) Version/16.1 Safari/605.1.15",Macintosh,Safari,16.1,OS X,10_15_7,3598,"
        <p>In this experiment, you will hear some music excerpts.</p>
        <p> After each track, you must indicate which of the selected colours you associated with the music.</p>",0,instruction,,,,,,
true,preload,3,6453,0.0-3.0,2,1,2023-07-28 12:40:22,abf82dad4018d89b46f04ecbbbe65d6b,,"Mozilla/5.0 (Macintosh; Intel Mac OS X 10_15_7) AppleWebKit/605.1.15 (KHTML, like Gecko) Version/16.1 Safari/605.1.15",Macintosh,Safari,16.1,OS X,10_15_7,,,,,false,[],[],[],,
,audio-button-response,4,19557,0.0-4.0-0.0,2,1,2023-07-28 12:40:22,abf82dad4018d89b46f04ecbbbe65d6b,,"Mozilla/5.0 (Macintosh; Intel Mac OS X 10_15_7) AppleWebKit/605.1.15 (KHTML, like Gecko) Version/16.1 Safari/605.1.15",Macintosh,Safari,16.1,OS X,10_15_7,12829,song1.wav,0,audio_button,,,,,,
,image-button-response,5,23889,0.0-4.0-1.0,2,1,2023-07-28 12:40:22,abf82dad4018d89b46f04ecbbbe65d6b,,"Mozilla/5.0 (Macintosh; Intel Mac OS X 10_15_7) AppleWebKit/605.1.15 (KHTML, like Gecko) Version/16.1 Safari/605.1.15",Macintosh,Safari,16.1,OS X,10_15_7,4327,col.png,2,image_button,,,,,,
,html-slider-response,6,29402,0.0-4.0-2.0,2,1,2023-07-28 12:40:22,abf82dad4018d89b46f04ecbbbe65d6b,,"Mozilla/5.0 (Macintosh; Intel Mac OS X 10_15_7) AppleWebKit/605.1.15 (KHTML, like Gecko) Version/16.1 Safari/605.1.15",Macintosh,Safari,16.1,OS X,10_15_7,5509,<p>How familiar was this song to you ?</p>,1,text_slider_response,,,,,50,
,audio-button-response,7,40779,0.0-4.0-0.1,2,1,2023-07-28 12:40:22,abf82dad4018d89b46f04ecbbbe65d6b,,"Mozilla/5.0 (Macintosh; Intel Mac OS X 10_15_7) AppleWebKit/605.1.15 (KHTML, like Gecko) Version/16.1 Safari/605.1.15",Macintosh,Safari,16.1,OS X,10_15_7,11003,song4.wav,0,audio_button,,,,,,
,image-button-response,8,43820,0.0-4.0-1.1,2,1,2023-07-28 12:40:22,abf82dad4018d89b46f04ecbbbe65d6b,,"Mozilla/5.0 (Macintosh; Intel Mac OS X 10_15_7) AppleWebKit/605.1.15 (KHTML, like Gecko) Version/16.1 Safari/605.1.15",Macintosh,Safari,16.1,OS X,10_15_7,3037,col.png,4,image_button,,,,,,
,html-slider-response,9,46399,0.0-4.0-2.1,2,1,2023-07-28 12:40:22,abf82dad4018d89b46f04ecbbbe65d6b,,"Mozilla/5.0 (Macintosh; Intel Mac OS X 10_15_7) AppleWebKit/605.1.15 (KHTML, like Gecko) Version/16.1 Safari/605.1.15",Macintosh,Safari,16.1,OS X,10_15_7,2576,<p>How familiar was this song to you ?</p>,1,text_slider_response,,,,,50,
,audio-button-response,10,58900,0.0-4.0-0.2,2,1,2023-07-28 12:40:22,abf82dad4018d89b46f04ecbbbe65d6b,,"Mozilla/5.0 (Macintosh; Intel Mac OS X 10_15_7) AppleWebKit/605.1.15 (KHTML, like Gecko) Version/16.1 Safari/605.1.15",Macintosh,Safari,16.1,OS X,10_15_7,12275,song2.wav,0,audio_button,,,,,,
,image-button-response,11,64239,0.0-4.0-1.2,2,1,2023-07-28 12:40:22,abf82dad4018d89b46f04ecbbbe65d6b,,"Mozilla/5.0 (Macintosh; Intel Mac OS X 10_15_7) AppleWebKit/605.1.15 (KHTML, like Gecko) Version/16.1 Safari/605.1.15",Macintosh,Safari,16.1,OS X,10_15_7,5332,col.png,5,image_button,,,,,,
,html-slider-response,12,68849,0.0-4.0-2.2,2,1,2023-07-28 12:40:22,abf82dad4018d89b46f04ecbbbe65d6b,,"Mozilla/5.0 (Macintosh; Intel Mac OS X 10_15_7) AppleWebKit/605.1.15 (KHTML, like Gecko) Version/16.1 Safari/605.1.15",Macintosh,Safari,16.1,OS X,10_15_7,4606,<p>How familiar was this song to you ?</p>,1,text_slider_response,,,,,50,
,audio-button-response,13,80633,0.0-4.0-0.3,2,1,2023-07-28 12:40:22,abf82dad4018d89b46f04ecbbbe65d6b,,"Mozilla/5.0 (Macintosh; Intel Mac OS X 10_15_7) AppleWebKit/605.1.15 (KHTML, like Gecko) Version/16.1 Safari/605.1.15",Macintosh,Safari,16.1,OS X,10_15_7,11509,song3.wav,0,audio_button,,,,,,
,image-button-response,14,82454,0.0-4.0-1.3,2,1,2023-07-28 12:40:22,abf82dad4018d89b46f04ecbbbe65d6b,,"Mozilla/5.0 (Macintosh; Intel Mac OS X 10_15_7) AppleWebKit/605.1.15 (KHTML, like Gecko) Version/16.1 Safari/605.1.15",Macintosh,Safari,16.1,OS X,10_15_7,1817,col.png,3,image_button,,,,,,
,html-slider-response,15,99123,0.0-4.0-2.3,2,1,2023-07-28 12:40:22,abf82dad4018d89b46f04ecbbbe65d6b,,"Mozilla/5.0 (Macintosh; Intel Mac OS X 10_15_7) AppleWebKit/605.1.15 (KHTML, like Gecko) Version/16.1 Safari/605.1.15",Macintosh,Safari,16.1,OS X,10_15_7,16665,<p>How familiar was this song to you ?</p>,1,text_slider_response,,,,,50,
,survey-multi-choice,16,113610,0.0-5.0-0.0,2,1,2023-07-28 12:40:22,abf82dad4018d89b46f04ecbbbe65d6b,,"Mozilla/5.0 (Macintosh; Intel Mac OS X 10_15_7) AppleWebKit/605.1.15 (KHTML, like Gecko) Version/16.1 Safari/605.1.15",Macintosh,Safari,16.1,OS X,10_15_7,14482,,"{""age"":""26 - 32"",""sex"":""Green""}",multi_choice,,,,,,"[0,1,2]"
,html-slider-response,17,124512,0.0-6.0,2,1,2023-07-28 12:40:22,abf82dad4018d89b46f04ecbbbe65d6b,,"Mozilla/5.0 (Macintosh; Intel Mac OS X 10_15_7) AppleWebKit/605.1.15 (KHTML, like Gecko) Version/16.1 Safari/605.1.15",Macintosh,Safari,16.1,OS X,10_15_7,10898,<p>Do you regard yourself as a visually creative person??</p>,50,text_slider_response,,,,,50,
true,fullscreen,0,2179,0.0-0.0,16,1,2023-07-28 12:54:29,abf82dad4018d89b46f04ecbbbe65d6b,,"Mozilla/5.0 (Macintosh; Intel Mac OS X 10_15_7) AppleWebKit/537.36 (KHTML, like Gecko) Chrome/114.0.0.0 Safari/537.36",Macintosh,Chrome,114.0.0.0,OS X,10_15_7,,,,,,,,,,
,html-button-response,1,3836,0.0-1.0,16,1,2023-07-28 12:54:29,abf82dad4018d89b46f04ecbbbe65d6b,,"Mozilla/5.0 (Macintosh; Intel Mac OS X 10_15_7) AppleWebKit/537.36 (KHTML, like Gecko) Chrome/114.0.0.0 Safari/537.36",Macintosh,Chrome,114.0.0.0,OS X,10_15_7,1654,Welcome to the experiment,0,,,,,,,
,html-button-response,2,10500,0.0-2.0,16,1,2023-07-28 12:54:29,abf82dad4018d89b46f04ecbbbe65d6b,,"Mozilla/5.0 (Macintosh; Intel Mac OS X 10_15_7) AppleWebKit/537.36 (KHTML, like Gecko) Chrome/114.0.0.0 Safari/537.36",Macintosh,Chrome,114.0.0.0,OS X,10_15_7,6662,"
        <p>In this experiment, you will hear some music excerpts.</p>
        <p> After each track, you must indicate which of the selected colours you associated with the music.</p>",0,instruction,,,,,,
true,preload,3,10500,0.0-3.0,16,1,2023-07-28 12:54:29,abf82dad4018d89b46f04ecbbbe65d6b,,"Mozilla/5.0 (Macintosh; Intel Mac OS X 10_15_7) AppleWebKit/537.36 (KHTML, like Gecko) Chrome/114.0.0.0 Safari/537.36",Macintosh,Chrome,114.0.0.0,OS X,10_15_7,,,,,false,[],[],[],,
true,fullscreen,0,2380,0.0-0.0,4,1,2023-07-28 12:45:51,abf82dad4018d89b46f04ecbbbe65d6b,,"Mozilla/5.0 (Windows NT 10.0; Win64; x64) AppleWebKit/537.36 (KHTML, like Gecko) Chrome/115.0.0.0 Safari/537.36",WebKit,Chrome,115.0.0.0,Windows,10.0,,,,,,,,,,
,html-button-response,1,3912,0.0-1.0,4,1,2023-07-28 12:45:51,abf82dad4018d89b46f04ecbbbe65d6b,,"Mozilla/5.0 (Windows NT 10.0; Win64; x64) AppleWebKit/537.36 (KHTML, like Gecko) Chrome/115.0.0.0 Safari/537.36",WebKit,Chrome,115.0.0.0,Windows,10.0,1520,Welcome to the experiment,0,,,,,,,
,html-button-response,2,7286,0.0-2.0,4,1,2023-07-28 12:45:51,abf82dad4018d89b46f04ecbbbe65d6b,,"Mozilla/5.0 (Windows NT 10.0; Win64; x64) AppleWebKit/537.36 (KHTML, like Gecko) Chrome/115.0.0.0 Safari/537.36",WebKit,Chrome,115.0.0.0,Windows,10.0,3370,"
        <p>In this experiment, you will hear some music excerpts.</p>
        <p> After each track, you must indicate which of the selected colours you associated with the music.</p>",0,instruction,,,,,,
true,preload,3,7289,0.0-3.0,4,1,2023-07-28 12:45:51,abf82dad4018d89b46f04ecbbbe65d6b,,"Mozilla/5.0 (Windows NT 10.0; Win64; x64) AppleWebKit/537.36 (KHTML, like Gecko) Chrome/115.0.0.0 Safari/537.36",WebKit,Chrome,115.0.0.0,Windows,10.0,,,,,false,[],[],[],,
,audio-button-response,4,20284,0.0-4.0-0.0,4,1,2023-07-28 12:45:51,abf82dad4018d89b46f04ecbbbe65d6b,,"Mozilla/5.0 (Windows NT 10.0; Win64; x64) AppleWebKit/537.36 (KHTML, like Gecko) Chrome/115.0.0.0 Safari/537.36",WebKit,Chrome,115.0.0.0,Windows,10.0,11952,song4.wav,0,audio_button,,,,,,
,image-button-response,5,25529,0.0-4.0-1.0,4,1,2023-07-28 12:45:51,abf82dad4018d89b46f04ecbbbe65d6b,,"Mozilla/5.0 (Windows NT 10.0; Win64; x64) AppleWebKit/537.36 (KHTML, like Gecko) Chrome/115.0.0.0 Safari/537.36",WebKit,Chrome,115.0.0.0,Windows,10.0,5234,col.png,4,image_button,,,,,,
,html-slider-response,6,28647,0.0-4.0-2.0,4,1,2023-07-28 12:45:51,abf82dad4018d89b46f04ecbbbe65d6b,,"Mozilla/5.0 (Windows NT 10.0; Win64; x64) AppleWebKit/537.36 (KHTML, like Gecko) Chrome/115.0.0.0 Safari/537.36",WebKit,Chrome,115.0.0.0,Windows,10.0,3110,<p>How familiar was this song to you ?</p>,67,text_slider_response,,,,,50,
,audio-button-response,7,41620,0.0-4.0-0.1,4,1,2023-07-28 12:45:51,abf82dad4018d89b46f04ecbbbe65d6b,,"Mozilla/5.0 (Windows NT 10.0; Win64; x64) AppleWebKit/537.36 (KHTML, like Gecko) Chrome/115.0.0.0 Safari/537.36",WebKit,Chrome,115.0.0.0,Windows,10.0,12291,song3.wav,0,audio_button,,,,,,
,image-button-response,8,44368,0.0-4.0-1.1,4,1,2023-07-28 12:45:51,abf82dad4018d89b46f04ecbbbe65d6b,,"Mozilla/5.0 (Windows NT 10.0; Win64; x64) AppleWebKit/537.36 (KHTML, like Gecko) Chrome/115.0.0.0 Safari/537.36",WebKit,Chrome,115.0.0.0,Windows,10.0,2744,col.png,5,image_button,,,,,,
,html-slider-response,9,47549,0.0-4.0-2.1,4,1,2023-07-28 12:45:51,abf82dad4018d89b46f04ecbbbe65d6b,,"Mozilla/5.0 (Windows NT 10.0; Win64; x64) AppleWebKit/537.36 (KHTML, like Gecko) Chrome/115.0.0.0 Safari/537.36",WebKit,Chrome,115.0.0.0,Windows,10.0,3174,<p>How familiar was this song to you ?</p>,60,text_slider_response,,,,,50,
,audio-button-response,10,60611,0.0-4.0-0.2,4,1,2023-07-28 12:45:51,abf82dad4018d89b46f04ecbbbe65d6b,,"Mozilla/5.0 (Windows NT 10.0; Win64; x64) AppleWebKit/537.36 (KHTML, like Gecko) Chrome/115.0.0.0 Safari/537.36",WebKit,Chrome,115.0.0.0,Windows,10.0,11768,song1.wav,0,audio_button,,,,,,
,image-button-response,11,62625,0.0-4.0-1.2,4,1,2023-07-28 12:45:51,abf82dad4018d89b46f04ecbbbe65d6b,,"Mozilla/5.0 (Windows NT 10.0; Win64; x64) AppleWebKit/537.36 (KHTML, like Gecko) Chrome/115.0.0.0 Safari/537.36",WebKit,Chrome,115.0.0.0,Windows,10.0,2007,col.png,5,image_button,,,,,,
,html-slider-response,12,65484,0.0-4.0-2.2,4,1,2023-07-28 12:45:51,abf82dad4018d89b46f04ecbbbe65d6b,,"Mozilla/5.0 (Windows NT 10.0; Win64; x64) AppleWebKit/537.36 (KHTML, like Gecko) Chrome/115.0.0.0 Safari/537.36",WebKit,Chrome,115.0.0.0,Windows,10.0,2855,<p>How familiar was this song to you ?</p>,26,text_slider_response,,,,,50,
,audio-button-response,13,78302,0.0-4.0-0.3,4,1,2023-07-28 12:45:51,abf82dad4018d89b46f04ecbbbe65d6b,,"Mozilla/5.0 (Windows NT 10.0; Win64; x64) AppleWebKit/537.36 (KHTML, like Gecko) Chrome/115.0.0.0 Safari/537.36",WebKit,Chrome,115.0.0.0,Windows,10.0,11691,song2.wav,0,audio_button,,,,,,
,image-button-response,14,81210,0.0-4.0-1.3,4,1,2023-07-28 12:45:51,abf82dad4018d89b46f04ecbbbe65d6b,,"Mozilla/5.0 (Windows NT 10.0; Win64; x64) AppleWebKit/537.36 (KHTML, like Gecko) Chrome/115.0.0.0 Safari/537.36",WebKit,Chrome,115.0.0.0,Windows,10.0,2901,col.png,2,image_button,,,,,,
,html-slider-response,15,84435,0.0-4.0-2.3,4,1,2023-07-28 12:45:51,abf82dad4018d89b46f04ecbbbe65d6b,,"Mozilla/5.0 (Windows NT 10.0; Win64; x64) AppleWebKit/537.36 (KHTML, like Gecko) Chrome/115.0.0.0 Safari/537.36",WebKit,Chrome,115.0.0.0,Windows,10.0,3223,<p>How familiar was this song to you ?</p>,100,text_slider_response,,,,,50,
,survey-multi-choice,16,93677,0.0-5.0-0.0,4,1,2023-07-28 12:45:51,abf82dad4018d89b46f04ecbbbe65d6b,,"Mozilla/5.0 (Windows NT 10.0; Win64; x64) AppleWebKit/537.36 (KHTML, like Gecko) Chrome/115.0.0.0 Safari/537.36",WebKit,Chrome,115.0.0.0,Windows,10.0,9227,,"{""age"":""18 - 25"",""sex"":""Yellow""}",multi_choice,,,,,,"[0,1,2]"
,html-slider-response,17,96553,0.0-6.0,4,1,2023-07-28 12:45:51,abf82dad4018d89b46f04ecbbbe65d6b,,"Mozilla/5.0 (Windows NT 10.0; Win64; x64) AppleWebKit/537.36 (KHTML, like Gecko) Chrome/115.0.0.0 Safari/537.36",WebKit,Chrome,115.0.0.0,Windows,10.0,2858,<p>Do you regard yourself as a visually creative person??</p>,72,text_slider_response,,,,,50,
,html-slider-response,18,101116,0.0-7.0,4,1,2023-07-28 12:45:51,abf82dad4018d89b46f04ecbbbe65d6b,,"Mozilla/5.0 (Windows NT 10.0; Win64; x64) AppleWebKit/537.36 (KHTML, like Gecko) Chrome/115.0.0.0 Safari/537.36",WebKit,Chrome,115.0.0.0,Windows,10.0,4556,<p>Do you regard yourself as a musician??</p>,62,text_slider_response,,,,,50,
true,fullscreen,0,2535,0.0-0.0,3,1,2023-07-28 12:45:46,abf82dad4018d89b46f04ecbbbe65d6b,,"Mozilla/5.0 (Macintosh; Intel Mac OS X 10_15_7) AppleWebKit/605.1.15 (KHTML, like Gecko) Version/16.5.2 Safari/605.1.15",Macintosh,Safari,16.5.2,OS X,10_15_7,,,,,,,,,,
,html-button-response,1,3831,0.0-1.0,3,1,2023-07-28 12:45:46,abf82dad4018d89b46f04ecbbbe65d6b,,"Mozilla/5.0 (Macintosh; Intel Mac OS X 10_15_7) AppleWebKit/605.1.15 (KHTML, like Gecko) Version/16.5.2 Safari/605.1.15",Macintosh,Safari,16.5.2,OS X,10_15_7,1291,Welcome to the experiment,0,,,,,,,
,html-button-response,2,7887,0.0-2.0,3,1,2023-07-28 12:45:46,abf82dad4018d89b46f04ecbbbe65d6b,,"Mozilla/5.0 (Macintosh; Intel Mac OS X 10_15_7) AppleWebKit/605.1.15 (KHTML, like Gecko) Version/16.5.2 Safari/605.1.15",Macintosh,Safari,16.5.2,OS X,10_15_7,4054,"
        <p>In this experiment, you will hear some music excerpts.</p>
        <p> After each track, you must indicate which of the selected colours you associated with the music.</p>",0,instruction,,,,,,
true,preload,3,7890,0.0-3.0,3,1,2023-07-28 12:45:46,abf82dad4018d89b46f04ecbbbe65d6b,,"Mozilla/5.0 (Macintosh; Intel Mac OS X 10_15_7) AppleWebKit/605.1.15 (KHTML, like Gecko) Version/16.5.2 Safari/605.1.15",Macintosh,Safari,16.5.2,OS X,10_15_7,,,,,false,[],[],[],,
,audio-button-response,4,21576,0.0-4.0-0.0,3,1,2023-07-28 12:45:46,abf82dad4018d89b46f04ecbbbe65d6b,,"Mozilla/5.0 (Macintosh; Intel Mac OS X 10_15_7) AppleWebKit/605.1.15 (KHTML, like Gecko) Version/16.5.2 Safari/605.1.15",Macintosh,Safari,16.5.2,OS X,10_15_7,13296,song3.wav,0,audio_button,,,,,,
,image-button-response,5,34519,0.0-4.0-1.0,3,1,2023-07-28 12:45:46,abf82dad4018d89b46f04ecbbbe65d6b,,"Mozilla/5.0 (Macintosh; Intel Mac OS X 10_15_7) AppleWebKit/605.1.15 (KHTML, like Gecko) Version/16.5.2 Safari/605.1.15",Macintosh,Safari,16.5.2,OS X,10_15_7,12933,col.png,4,image_button,,,,,,
,html-slider-response,6,40269,0.0-4.0-2.0,3,1,2023-07-28 12:45:46,abf82dad4018d89b46f04ecbbbe65d6b,,"Mozilla/5.0 (Macintosh; Intel Mac OS X 10_15_7) AppleWebKit/605.1.15 (KHTML, like Gecko) Version/16.5.2 Safari/605.1.15",Macintosh,Safari,16.5.2,OS X,10_15_7,5746,<p>How familiar was this song to you ?</p>,100,text_slider_response,,,,,50,
,audio-button-response,7,54047,0.0-4.0-0.1,3,1,2023-07-28 12:45:46,abf82dad4018d89b46f04ecbbbe65d6b,,"Mozilla/5.0 (Macintosh; Intel Mac OS X 10_15_7) AppleWebKit/605.1.15 (KHTML, like Gecko) Version/16.5.2 Safari/605.1.15",Macintosh,Safari,16.5.2,OS X,10_15_7,13447,song1.wav,0,audio_button,,,,,,
,image-button-response,8,57181,0.0-4.0-1.1,3,1,2023-07-28 12:45:46,abf82dad4018d89b46f04ecbbbe65d6b,,"Mozilla/5.0 (Macintosh; Intel Mac OS X 10_15_7) AppleWebKit/605.1.15 (KHTML, like Gecko) Version/16.5.2 Safari/605.1.15",Macintosh,Safari,16.5.2,OS X,10_15_7,3124,col.png,2,image_button,,,,,,
,html-slider-response,9,59922,0.0-4.0-2.1,3,1,2023-07-28 12:45:46,abf82dad4018d89b46f04ecbbbe65d6b,,"Mozilla/5.0 (Macintosh; Intel Mac OS X 10_15_7) AppleWebKit/605.1.15 (KHTML, like Gecko) Version/16.5.2 Safari/605.1.15",Macintosh,Safari,16.5.2,OS X,10_15_7,2738,<p>How familiar was this song to you ?</p>,0,text_slider_response,,,,,50,
,audio-button-response,10,71587,0.0-4.0-0.2,3,1,2023-07-28 12:45:46,abf82dad4018d89b46f04ecbbbe65d6b,,"Mozilla/5.0 (Macintosh; Intel Mac OS X 10_15_7) AppleWebKit/605.1.15 (KHTML, like Gecko) Version/16.5.2 Safari/605.1.15",Macintosh,Safari,16.5.2,OS X,10_15_7,11514,song4.wav,0,audio_button,,,,,,
,image-button-response,11,78066,0.0-4.0-1.2,3,1,2023-07-28 12:45:46,abf82dad4018d89b46f04ecbbbe65d6b,,"Mozilla/5.0 (Macintosh; Intel Mac OS X 10_15_7) AppleWebKit/605.1.15 (KHTML, like Gecko) Version/16.5.2 Safari/605.1.15",Macintosh,Safari,16.5.2,OS X,10_15_7,6469,col.png,5,image_button,,,,,,
,html-slider-response,12,80095,0.0-4.0-2.2,3,1,2023-07-28 12:45:46,abf82dad4018d89b46f04ecbbbe65d6b,,"Mozilla/5.0 (Macintosh; Intel Mac OS X 10_15_7) AppleWebKit/605.1.15 (KHTML, like Gecko) Version/16.5.2 Safari/605.1.15",Macintosh,Safari,16.5.2,OS X,10_15_7,2026,<p>How familiar was this song to you ?</p>,100,text_slider_response,,,,,50,
,audio-button-response,13,92111,0.0-4.0-0.3,3,1,2023-07-28 12:45:46,abf82dad4018d89b46f04ecbbbe65d6b,,"Mozilla/5.0 (Macintosh; Intel Mac OS X 10_15_7) AppleWebKit/605.1.15 (KHTML, like Gecko) Version/16.5.2 Safari/605.1.15",Macintosh,Safari,16.5.2,OS X,10_15_7,11862,song2.wav,0,audio_button,,,,,,
,image-button-response,14,94777,0.0-4.0-1.3,3,1,2023-07-28 12:45:46,abf82dad4018d89b46f04ecbbbe65d6b,,"Mozilla/5.0 (Macintosh; Intel Mac OS X 10_15_7) AppleWebKit/605.1.15 (KHTML, like Gecko) Version/16.5.2 Safari/605.1.15",Macintosh,Safari,16.5.2,OS X,10_15_7,2657,col.png,1,image_button,,,,,,
,html-slider-response,15,97706,0.0-4.0-2.3,3,1,2023-07-28 12:45:46,abf82dad4018d89b46f04ecbbbe65d6b,,"Mozilla/5.0 (Macintosh; Intel Mac OS X 10_15_7) AppleWebKit/605.1.15 (KHTML, like Gecko) Version/16.5.2 Safari/605.1.15",Macintosh,Safari,16.5.2,OS X,10_15_7,2926,<p>How familiar was this song to you ?</p>,100,text_slider_response,,,,,50,
,survey-multi-choice,16,111358,0.0-5.0-0.0,3,1,2023-07-28 12:45:46,abf82dad4018d89b46f04ecbbbe65d6b,,"Mozilla/5.0 (Macintosh; Intel Mac OS X 10_15_7) AppleWebKit/605.1.15 (KHTML, like Gecko) Version/16.5.2 Safari/605.1.15",Macintosh,Safari,16.5.2,OS X,10_15_7,13647,,"{""age"":""26 - 32"",""sex"":""Red""}",multi_choice,,,,,,"[0,1,2]"
,html-slider-response,17,118429,0.0-6.0,3,1,2023-07-28 12:45:46,abf82dad4018d89b46f04ecbbbe65d6b,,"Mozilla/5.0 (Macintosh; Intel Mac OS X 10_15_7) AppleWebKit/605.1.15 (KHTML, like Gecko) Version/16.5.2 Safari/605.1.15",Macintosh,Safari,16.5.2,OS X,10_15_7,7049,<p>Do you regard yourself as a visually creative person??</p>,96,text_slider_response,,,,,50,
,html-slider-response,18,125114,0.0-7.0,3,1,2023-07-28 12:45:46,abf82dad4018d89b46f04ecbbbe65d6b,,"Mozilla/5.0 (Macintosh; Intel Mac OS X 10_15_7) AppleWebKit/605.1.15 (KHTML, like Gecko) Version/16.5.2 Safari/605.1.15",Macintosh,Safari,16.5.2,OS X,10_15_7,6682,<p>Do you regard yourself as a musician??</p>,99,text_slider_response,,,,,50,
true,fullscreen,19,126117,0.0-8.0,3,1,2023-07-28 12:45:46,abf82dad4018d89b46f04ecbbbe65d6b,,"Mozilla/5.0 (Macintosh; Intel Mac OS X 10_15_7) AppleWebKit/605.1.15 (KHTML, like Gecko) Version/16.5.2 Safari/605.1.15",Macintosh,Safari,16.5.2,OS X,10_15_7,,,,,,,,,,
true,fullscreen,0,2245,0.0-0.0,12,1,2023-07-28 12:50:41,abf82dad4018d89b46f04ecbbbe65d6b,,"Mozilla/5.0 (Macintosh; Intel Mac OS X 10_15_7) AppleWebKit/537.36 (KHTML, like Gecko) Chrome/113.0.0.0 Safari/537.36",Macintosh,Chrome,113.0.0.0,OS X,10_15_7,,,,,,,,,,
,html-button-response,1,3438,0.0-1.0,12,1,2023-07-28 12:50:41,abf82dad4018d89b46f04ecbbbe65d6b,,"Mozilla/5.0 (Macintosh; Intel Mac OS X 10_15_7) AppleWebKit/537.36 (KHTML, like Gecko) Chrome/113.0.0.0 Safari/537.36",Macintosh,Chrome,113.0.0.0,OS X,10_15_7,1190,Welcome to the experiment,0,,,,,,,
,html-button-response,2,5122,0.0-2.0,12,1,2023-07-28 12:50:41,abf82dad4018d89b46f04ecbbbe65d6b,,"Mozilla/5.0 (Macintosh; Intel Mac OS X 10_15_7) AppleWebKit/537.36 (KHTML, like Gecko) Chrome/113.0.0.0 Safari/537.36",Macintosh,Chrome,113.0.0.0,OS X,10_15_7,1683,"
        <p>In this experiment, you will hear some music excerpts.</p>
        <p> After each track, you must indicate which of the selected colours you associated with the music.</p>",0,instruction,,,,,,
true,preload,3,5123,0.0-3.0,12,1,2023-07-28 12:50:41,abf82dad4018d89b46f04ecbbbe65d6b,,"Mozilla/5.0 (Macintosh; Intel Mac OS X 10_15_7) AppleWebKit/537.36 (KHTML, like Gecko) Chrome/113.0.0.0 Safari/537.36",Macintosh,Chrome,113.0.0.0,OS X,10_15_7,,,,,false,[],[],[],,
,audio-button-response,4,17422,0.0-4.0-0.0,12,1,2023-07-28 12:50:41,abf82dad4018d89b46f04ecbbbe65d6b,,"Mozilla/5.0 (Macintosh; Intel Mac OS X 10_15_7) AppleWebKit/537.36 (KHTML, like Gecko) Chrome/113.0.0.0 Safari/537.36",Macintosh,Chrome,113.0.0.0,OS X,10_15_7,11807,song2.wav,0,audio_button,,,,,,
,image-button-response,5,24532,0.0-4.0-1.0,12,1,2023-07-28 12:50:41,abf82dad4018d89b46f04ecbbbe65d6b,,"Mozilla/5.0 (Macintosh; Intel Mac OS X 10_15_7) AppleWebKit/537.36 (KHTML, like Gecko) Chrome/113.0.0.0 Safari/537.36",Macintosh,Chrome,113.0.0.0,OS X,10_15_7,7108,col.png,5,image_button,,,,,,
,html-slider-response,6,28385,0.0-4.0-2.0,12,1,2023-07-28 12:50:41,abf82dad4018d89b46f04ecbbbe65d6b,,"Mozilla/5.0 (Macintosh; Intel Mac OS X 10_15_7) AppleWebKit/537.36 (KHTML, like Gecko) Chrome/113.0.0.0 Safari/537.36",Macintosh,Chrome,113.0.0.0,OS X,10_15_7,3851,<p>How familiar was this song to you ?</p>,0,text_slider_response,,,,,50,
,audio-button-response,7,40356,0.0-4.0-0.1,12,1,2023-07-28 12:50:41,abf82dad4018d89b46f04ecbbbe65d6b,,"Mozilla/5.0 (Macintosh; Intel Mac OS X 10_15_7) AppleWebKit/537.36 (KHTML, like Gecko) Chrome/113.0.0.0 Safari/537.36",Macintosh,Chrome,113.0.0.0,OS X,10_15_7,11476,song4.wav,0,audio_button,,,,,,
,image-button-response,8,46111,0.0-4.0-1.1,12,1,2023-07-28 12:50:41,abf82dad4018d89b46f04ecbbbe65d6b,,"Mozilla/5.0 (Macintosh; Intel Mac OS X 10_15_7) AppleWebKit/537.36 (KHTML, like Gecko) Chrome/113.0.0.0 Safari/537.36",Macintosh,Chrome,113.0.0.0,OS X,10_15_7,5754,col.png,4,image_button,,,,,,
,html-slider-response,9,48858,0.0-4.0-2.1,12,1,2023-07-28 12:50:41,abf82dad4018d89b46f04ecbbbe65d6b,,"Mozilla/5.0 (Macintosh; Intel Mac OS X 10_15_7) AppleWebKit/537.36 (KHTML, like Gecko) Chrome/113.0.0.0 Safari/537.36",Macintosh,Chrome,113.0.0.0,OS X,10_15_7,2746,<p>How familiar was this song to you ?</p>,0,text_slider_response,,,,,50,
,audio-button-response,10,60170,0.0-4.0-0.2,12,1,2023-07-28 12:50:41,abf82dad4018d89b46f04ecbbbe65d6b,,"Mozilla/5.0 (Macintosh; Intel Mac OS X 10_15_7) AppleWebKit/537.36 (KHTML, like Gecko) Chrome/113.0.0.0 Safari/537.36",Macintosh,Chrome,113.0.0.0,OS X,10_15_7,10757,song3.wav,0,audio_button,,,,,,
,image-button-response,11,63097,0.0-4.0-1.2,12,1,2023-07-28 12:50:41,abf82dad4018d89b46f04ecbbbe65d6b,,"Mozilla/5.0 (Macintosh; Intel Mac OS X 10_15_7) AppleWebKit/537.36 (KHTML, like Gecko) Chrome/113.0.0.0 Safari/537.36",Macintosh,Chrome,113.0.0.0,OS X,10_15_7,2926,col.png,3,image_button,,,,,,
,html-slider-response,12,65886,0.0-4.0-2.2,12,1,2023-07-28 12:50:41,abf82dad4018d89b46f04ecbbbe65d6b,,"Mozilla/5.0 (Macintosh; Intel Mac OS X 10_15_7) AppleWebKit/537.36 (KHTML, like Gecko) Chrome/113.0.0.0 Safari/537.36",Macintosh,Chrome,113.0.0.0,OS X,10_15_7,2788,<p>How familiar was this song to you ?</p>,0,text_slider_response,,,,,50,
,audio-button-response,13,77272,0.0-4.0-0.3,12,1,2023-07-28 12:50:41,abf82dad4018d89b46f04ecbbbe65d6b,,"Mozilla/5.0 (Macintosh; Intel Mac OS X 10_15_7) AppleWebKit/537.36 (KHTML, like Gecko) Chrome/113.0.0.0 Safari/537.36",Macintosh,Chrome,113.0.0.0,OS X,10_15_7,10820,song1.wav,0,audio_button,,,,,,
,image-button-response,14,81262,0.0-4.0-1.3,12,1,2023-07-28 12:50:41,abf82dad4018d89b46f04ecbbbe65d6b,,"Mozilla/5.0 (Macintosh; Intel Mac OS X 10_15_7) AppleWebKit/537.36 (KHTML, like Gecko) Chrome/113.0.0.0 Safari/537.36",Macintosh,Chrome,113.0.0.0,OS X,10_15_7,3989,col.png,2,image_button,,,,,,
,html-slider-response,15,83691,0.0-4.0-2.3,12,1,2023-07-28 12:50:41,abf82dad4018d89b46f04ecbbbe65d6b,,"Mozilla/5.0 (Macintosh; Intel Mac OS X 10_15_7) AppleWebKit/537.36 (KHTML, like Gecko) Chrome/113.0.0.0 Safari/537.36",Macintosh,Chrome,113.0.0.0,OS X,10_15_7,2427,<p>How familiar was this song to you ?</p>,100,text_slider_response,,,,,50,
,survey-multi-choice,16,93007,0.0-5.0-0.0,12,1,2023-07-28 12:50:41,abf82dad4018d89b46f04ecbbbe65d6b,,"Mozilla/5.0 (Macintosh; Intel Mac OS X 10_15_7) AppleWebKit/537.36 (KHTML, like Gecko) Chrome/113.0.0.0 Safari/537.36",Macintosh,Chrome,113.0.0.0,OS X,10_15_7,9313,,"{""age"":""18 - 25"",""sex"":""Blue""}",multi_choice,,,,,,"[0,1,2]"
,html-slider-response,17,98389,0.0-6.0,12,1,2023-07-28 12:50:41,abf82dad4018d89b46f04ecbbbe65d6b,,"Mozilla/5.0 (Macintosh; Intel Mac OS X 10_15_7) AppleWebKit/537.36 (KHTML, like Gecko) Chrome/113.0.0.0 Safari/537.36",Macintosh,Chrome,113.0.0.0,OS X,10_15_7,5377,<p>Do you regard yourself as a visually creative person??</p>,87,text_slider_response,,,,,50,
,html-slider-response,18,100747,0.0-7.0,12,1,2023-07-28 12:50:41,abf82dad4018d89b46f04ecbbbe65d6b,,"Mozilla/5.0 (Macintosh; Intel Mac OS X 10_15_7) AppleWebKit/537.36 (KHTML, like Gecko) Chrome/113.0.0.0 Safari/537.36",Macintosh,Chrome,113.0.0.0,OS X,10_15_7,2356,<p>Do you regard yourself as a musician??</p>,100,text_slider_response,,,,,50,
true,fullscreen,0,2079,0.0-0.0,5,1,2023-07-28 12:45:57,abf82dad4018d89b46f04ecbbbe65d6b,,"Mozilla/5.0 (Windows NT 10.0; Win64; x64) AppleWebKit/537.36 (KHTML, like Gecko) Chrome/115.0.0.0 Safari/537.36",WebKit,Chrome,115.0.0.0,Windows,10.0,,,,,,,,,,
,html-button-response,1,2936,0.0-1.0,5,1,2023-07-28 12:45:57,abf82dad4018d89b46f04ecbbbe65d6b,,"Mozilla/5.0 (Windows NT 10.0; Win64; x64) AppleWebKit/537.36 (KHTML, like Gecko) Chrome/115.0.0.0 Safari/537.36",WebKit,Chrome,115.0.0.0,Windows,10.0,853,Welcome to the experiment,0,,,,,,,
,html-button-response,2,5408,0.0-2.0,5,1,2023-07-28 12:45:57,abf82dad4018d89b46f04ecbbbe65d6b,,"Mozilla/5.0 (Windows NT 10.0; Win64; x64) AppleWebKit/537.36 (KHTML, like Gecko) Chrome/115.0.0.0 Safari/537.36",WebKit,Chrome,115.0.0.0,Windows,10.0,2472,"
        <p>In this experiment, you will hear some music excerpts.</p>
        <p> After each track, you must indicate which of the selected colours you associated with the music.</p>",0,instruction,,,,,,
true,preload,3,5409,0.0-3.0,5,1,2023-07-28 12:45:57,abf82dad4018d89b46f04ecbbbe65d6b,,"Mozilla/5.0 (Windows NT 10.0; Win64; x64) AppleWebKit/537.36 (KHTML, like Gecko) Chrome/115.0.0.0 Safari/537.36",WebKit,Chrome,115.0.0.0,Windows,10.0,,,,,false,[],[],[],,
,audio-button-response,4,17512,0.0-4.0-0.0,5,1,2023-07-28 12:45:57,abf82dad4018d89b46f04ecbbbe65d6b,,"Mozilla/5.0 (Windows NT 10.0; Win64; x64) AppleWebKit/537.36 (KHTML, like Gecko) Chrome/115.0.0.0 Safari/537.36",WebKit,Chrome,115.0.0.0,Windows,10.0,11741,song3.wav,0,audio_button,,,,,,
,image-button-response,5,20596,0.0-4.0-1.0,5,1,2023-07-28 12:45:57,abf82dad4018d89b46f04ecbbbe65d6b,,"Mozilla/5.0 (Windows NT 10.0; Win64; x64) AppleWebKit/537.36 (KHTML, like Gecko) Chrome/115.0.0.0 Safari/537.36",WebKit,Chrome,115.0.0.0,Windows,10.0,3082,col.png,3,image_button,,,,,,
,html-slider-response,6,31719,0.0-4.0-2.0,5,1,2023-07-28 12:45:57,abf82dad4018d89b46f04ecbbbe65d6b,,"Mozilla/5.0 (Windows NT 10.0; Win64; x64) AppleWebKit/537.36 (KHTML, like Gecko) Chrome/115.0.0.0 Safari/537.36",WebKit,Chrome,115.0.0.0,Windows,10.0,11122,<p>How familiar was this song to you ?</p>,3,text_slider_response,,,,,50,
,audio-button-response,7,43915,0.0-4.0-0.1,5,1,2023-07-28 12:45:57,abf82dad4018d89b46f04ecbbbe65d6b,,"Mozilla/5.0 (Windows NT 10.0; Win64; x64) AppleWebKit/537.36 (KHTML, like Gecko) Chrome/115.0.0.0 Safari/537.36",WebKit,Chrome,115.0.0.0,Windows,10.0,11891,song1.wav,0,audio_button,,,,,,
,image-button-response,8,49753,0.0-4.0-1.1,5,1,2023-07-28 12:45:57,abf82dad4018d89b46f04ecbbbe65d6b,,"Mozilla/5.0 (Windows NT 10.0; Win64; x64) AppleWebKit/537.36 (KHTML, like Gecko) Chrome/115.0.0.0 Safari/537.36",WebKit,Chrome,115.0.0.0,Windows,10.0,5837,col.png,5,image_button,,,,,,
,html-slider-response,9,52673,0.0-4.0-2.1,5,1,2023-07-28 12:45:57,abf82dad4018d89b46f04ecbbbe65d6b,,"Mozilla/5.0 (Windows NT 10.0; Win64; x64) AppleWebKit/537.36 (KHTML, like Gecko) Chrome/115.0.0.0 Safari/537.36",WebKit,Chrome,115.0.0.0,Windows,10.0,2919,<p>How familiar was this song to you ?</p>,5,text_slider_response,,,,,50,
,audio-button-response,10,66267,0.0-4.0-0.2,5,1,2023-07-28 12:45:57,abf82dad4018d89b46f04ecbbbe65d6b,,"Mozilla/5.0 (Windows NT 10.0; Win64; x64) AppleWebKit/537.36 (KHTML, like Gecko) Chrome/115.0.0.0 Safari/537.36",WebKit,Chrome,115.0.0.0,Windows,10.0,13309,song4.wav,0,audio_button,,,,,,
,image-button-response,11,68598,0.0-4.0-1.2,5,1,2023-07-28 12:45:57,abf82dad4018d89b46f04ecbbbe65d6b,,"Mozilla/5.0 (Windows NT 10.0; Win64; x64) AppleWebKit/537.36 (KHTML, like Gecko) Chrome/115.0.0.0 Safari/537.36",WebKit,Chrome,115.0.0.0,Windows,10.0,2330,col.png,2,image_button,,,,,,
,html-slider-response,12,71892,0.0-4.0-2.2,5,1,2023-07-28 12:45:57,abf82dad4018d89b46f04ecbbbe65d6b,,"Mozilla/5.0 (Windows NT 10.0; Win64; x64) AppleWebKit/537.36 (KHTML, like Gecko) Chrome/115.0.0.0 Safari/537.36",WebKit,Chrome,115.0.0.0,Windows,10.0,3293,<p>How familiar was this song to you ?</p>,92,text_slider_response,,,,,50,
,audio-button-response,13,84067,0.0-4.0-0.3,5,1,2023-07-28 12:45:57,abf82dad4018d89b46f04ecbbbe65d6b,,"Mozilla/5.0 (Windows NT 10.0; Win64; x64) AppleWebKit/537.36 (KHTML, like Gecko) Chrome/115.0.0.0 Safari/537.36",WebKit,Chrome,115.0.0.0,Windows,10.0,11920,song2.wav,0,audio_button,,,,,,
,image-button-response,14,88414,0.0-4.0-1.3,5,1,2023-07-28 12:45:57,abf82dad4018d89b46f04ecbbbe65d6b,,"Mozilla/5.0 (Windows NT 10.0; Win64; x64) AppleWebKit/537.36 (KHTML, like Gecko) Chrome/115.0.0.0 Safari/537.36",WebKit,Chrome,115.0.0.0,Windows,10.0,4345,col.png,1,image_button,,,,,,
,html-slider-response,15,90864,0.0-4.0-2.3,5,1,2023-07-28 12:45:57,abf82dad4018d89b46f04ecbbbe65d6b,,"Mozilla/5.0 (Windows NT 10.0; Win64; x64) AppleWebKit/537.36 (KHTML, like Gecko) Chrome/115.0.0.0 Safari/537.36",WebKit,Chrome,115.0.0.0,Windows,10.0,2450,<p>How familiar was this song to you ?</p>,100,text_slider_response,,,,,50,
,survey-multi-choice,16,100752,0.0-5.0-0.0,5,1,2023-07-28 12:45:57,abf82dad4018d89b46f04ecbbbe65d6b,,"Mozilla/5.0 (Windows NT 10.0; Win64; x64) AppleWebKit/537.36 (KHTML, like Gecko) Chrome/115.0.0.0 Safari/537.36",WebKit,Chrome,115.0.0.0,Windows,10.0,9886,,"{""age"":""18 - 25"",""sex"":""Red""}",multi_choice,,,,,,"[0,1,2]"
,html-slider-response,17,104886,0.0-6.0,5,1,2023-07-28 12:45:57,abf82dad4018d89b46f04ecbbbe65d6b,,"Mozilla/5.0 (Windows NT 10.0; Win64; x64) AppleWebKit/537.36 (KHTML, like Gecko) Chrome/115.0.0.0 Safari/537.36",WebKit,Chrome,115.0.0.0,Windows,10.0,4131,<p>Do you regard yourself as a visually creative person??</p>,90,text_slider_response,,,,,50,
,html-slider-response,18,114084,0.0-7.0,5,1,2023-07-28 12:45:57,abf82dad4018d89b46f04ecbbbe65d6b,,"Mozilla/5.0 (Windows NT 10.0; Win64; x64) AppleWebKit/537.36 (KHTML, like Gecko) Chrome/115.0.0.0 Safari/537.36",WebKit,Chrome,115.0.0.0,Windows,10.0,9197,<p>Do you regard yourself as a musician??</p>,59,text_slider_response,,,,,50,
true,fullscreen,19,115086,0.0-8.0,5,1,2023-07-28 12:45:57,abf82dad4018d89b46f04ecbbbe65d6b,,"Mozilla/5.0 (Windows NT 10.0; Win64; x64) AppleWebKit/537.36 (KHTML, like Gecko) Chrome/115.0.0.0 Safari/537.36",WebKit,Chrome,115.0.0.0,Windows,10.0,,,,,,,,,,
true,fullscreen,0,2424,0.0-0.0,6,1,2023-07-28 12:46:49,abf82dad4018d89b46f04ecbbbe65d6b,,Mozilla/5.0 (Macintosh; Intel Mac OS X 10.15; rv:109.0) Gecko/20100101 Firefox/114.0,Macintosh,Firefox,114.0,OS X,10.15,,,,,,,,,,
,html-button-response,1,3504,0.0-1.0,6,1,2023-07-28 12:46:49,abf82dad4018d89b46f04ecbbbe65d6b,,Mozilla/5.0 (Macintosh; Intel Mac OS X 10.15; rv:109.0) Gecko/20100101 Firefox/114.0,Macintosh,Firefox,114.0,OS X,10.15,1079,Welcome to the experiment,0,,,,,,,
,html-button-response,2,18289,0.0-2.0,6,1,2023-07-28 12:46:49,abf82dad4018d89b46f04ecbbbe65d6b,,Mozilla/5.0 (Macintosh; Intel Mac OS X 10.15; rv:109.0) Gecko/20100101 Firefox/114.0,Macintosh,Firefox,114.0,OS X,10.15,14782,"
        <p>In this experiment, you will hear some music excerpts.</p>
        <p> After each track, you must indicate which of the selected colours you associated with the music.</p>",0,instruction,,,,,,
true,preload,3,18291,0.0-3.0,6,1,2023-07-28 12:46:49,abf82dad4018d89b46f04ecbbbe65d6b,,Mozilla/5.0 (Macintosh; Intel Mac OS X 10.15; rv:109.0) Gecko/20100101 Firefox/114.0,Macintosh,Firefox,114.0,OS X,10.15,,,,,false,[],[],[],,
,audio-button-response,4,29385,0.0-4.0-0.0,6,1,2023-07-28 12:46:49,abf82dad4018d89b46f04ecbbbe65d6b,,Mozilla/5.0 (Macintosh; Intel Mac OS X 10.15; rv:109.0) Gecko/20100101 Firefox/114.0,Macintosh,Firefox,114.0,OS X,10.15,10890,song4.wav,0,audio_button,,,,,,
,image-button-response,5,35629,0.0-4.0-1.0,6,1,2023-07-28 12:46:49,abf82dad4018d89b46f04ecbbbe65d6b,,Mozilla/5.0 (Macintosh; Intel Mac OS X 10.15; rv:109.0) Gecko/20100101 Firefox/114.0,Macintosh,Firefox,114.0,OS X,10.15,6240,col.png,1,image_button,,,,,,
,html-slider-response,6,42188,0.0-4.0-2.0,6,1,2023-07-28 12:46:49,abf82dad4018d89b46f04ecbbbe65d6b,,Mozilla/5.0 (Macintosh; Intel Mac OS X 10.15; rv:109.0) Gecko/20100101 Firefox/114.0,Macintosh,Firefox,114.0,OS X,10.15,6557,<p>How familiar was this song to you ?</p>,36,text_slider_response,,,,,50,
,audio-button-response,7,53819,0.0-4.0-0.1,6,1,2023-07-28 12:46:49,abf82dad4018d89b46f04ecbbbe65d6b,,Mozilla/5.0 (Macintosh; Intel Mac OS X 10.15; rv:109.0) Gecko/20100101 Firefox/114.0,Macintosh,Firefox,114.0,OS X,10.15,11482,song1.wav,0,audio_button,,,,,,
,image-button-response,8,56921,0.0-4.0-1.1,6,1,2023-07-28 12:46:49,abf82dad4018d89b46f04ecbbbe65d6b,,Mozilla/5.0 (Macintosh; Intel Mac OS X 10.15; rv:109.0) Gecko/20100101 Firefox/114.0,Macintosh,Firefox,114.0,OS X,10.15,3101,col.png,5,image_button,,,,,,
,html-slider-response,9,59976,0.0-4.0-2.1,6,1,2023-07-28 12:46:49,abf82dad4018d89b46f04ecbbbe65d6b,,Mozilla/5.0 (Macintosh; Intel Mac OS X 10.15; rv:109.0) Gecko/20100101 Firefox/114.0,Macintosh,Firefox,114.0,OS X,10.15,3053,<p>How familiar was this song to you ?</p>,30,text_slider_response,,,,,50,
,audio-button-response,10,72148,0.0-4.0-0.2,6,1,2023-07-28 12:46:49,abf82dad4018d89b46f04ecbbbe65d6b,,Mozilla/5.0 (Macintosh; Intel Mac OS X 10.15; rv:109.0) Gecko/20100101 Firefox/114.0,Macintosh,Firefox,114.0,OS X,10.15,12016,song2.wav,0,audio_button,,,,,,
,image-button-response,11,75033,0.0-4.0-1.2,6,1,2023-07-28 12:46:49,abf82dad4018d89b46f04ecbbbe65d6b,,Mozilla/5.0 (Macintosh; Intel Mac OS X 10.15; rv:109.0) Gecko/20100101 Firefox/114.0,Macintosh,Firefox,114.0,OS X,10.15,2880,col.png,2,image_button,,,,,,
,html-slider-response,12,76805,0.0-4.0-2.2,6,1,2023-07-28 12:46:49,abf82dad4018d89b46f04ecbbbe65d6b,,Mozilla/5.0 (Macintosh; Intel Mac OS X 10.15; rv:109.0) Gecko/20100101 Firefox/114.0,Macintosh,Firefox,114.0,OS X,10.15,1767,<p>How familiar was this song to you ?</p>,84,text_slider_response,,,,,50,
,audio-button-response,13,87763,0.0-4.0-0.3,6,1,2023-07-28 12:46:49,abf82dad4018d89b46f04ecbbbe65d6b,,Mozilla/5.0 (Macintosh; Intel Mac OS X 10.15; rv:109.0) Gecko/20100101 Firefox/114.0,Macintosh,Firefox,114.0,OS X,10.15,10797,song3.wav,0,audio_button,,,,,,
,image-button-response,14,89150,0.0-4.0-1.3,6,1,2023-07-28 12:46:49,abf82dad4018d89b46f04ecbbbe65d6b,,Mozilla/5.0 (Macintosh; Intel Mac OS X 10.15; rv:109.0) Gecko/20100101 Firefox/114.0,Macintosh,Firefox,114.0,OS X,10.15,1386,col.png,3,image_button,,,,,,
,html-slider-response,15,91091,0.0-4.0-2.3,6,1,2023-07-28 12:46:49,abf82dad4018d89b46f04ecbbbe65d6b,,Mozilla/5.0 (Macintosh; Intel Mac OS X 10.15; rv:109.0) Gecko/20100101 Firefox/114.0,Macintosh,Firefox,114.0,OS X,10.15,1939,<p>How familiar was this song to you ?</p>,1,text_slider_response,,,,,50,
,survey-multi-choice,16,107969,0.0-5.0-0.0,6,1,2023-07-28 12:46:49,abf82dad4018d89b46f04ecbbbe65d6b,,Mozilla/5.0 (Macintosh; Intel Mac OS X 10.15; rv:109.0) Gecko/20100101 Firefox/114.0,Macintosh,Firefox,114.0,OS X,10.15,16876,,"{""age"":""18 - 25"",""sex"":""Red""}",multi_choice,,,,,,"[0,1,2]"
,html-slider-response,17,118346,0.0-6.0,6,1,2023-07-28 12:46:49,abf82dad4018d89b46f04ecbbbe65d6b,,Mozilla/5.0 (Macintosh; Intel Mac OS X 10.15; rv:109.0) Gecko/20100101 Firefox/114.0,Macintosh,Firefox,114.0,OS X,10.15,10376,<p>Do you regard yourself as a visually creative person??</p>,25,text_slider_response,,,,,50,
true,fullscreen,0,1986,0.0-0.0,10,1,2023-07-28 12:49:37,abf82dad4018d89b46f04ecbbbe65d6b,,"Mozilla/5.0 (Windows NT 10.0; Win64; x64) AppleWebKit/537.36 (KHTML, like Gecko) Chrome/114.0.0.0 Safari/537.36",WebKit,Chrome,114.0.0.0,Windows,10.0,,,,,,,,,,
,html-button-response,1,3263,0.0-1.0,10,1,2023-07-28 12:49:37,abf82dad4018d89b46f04ecbbbe65d6b,,"Mozilla/5.0 (Windows NT 10.0; Win64; x64) AppleWebKit/537.36 (KHTML, like Gecko) Chrome/114.0.0.0 Safari/537.36",WebKit,Chrome,114.0.0.0,Windows,10.0,1276,Welcome to the experiment,0,,,,,,,
,html-button-response,2,4322,0.0-2.0,10,1,2023-07-28 12:49:37,abf82dad4018d89b46f04ecbbbe65d6b,,"Mozilla/5.0 (Windows NT 10.0; Win64; x64) AppleWebKit/537.36 (KHTML, like Gecko) Chrome/114.0.0.0 Safari/537.36",WebKit,Chrome,114.0.0.0,Windows,10.0,1057,"
        <p>In this experiment, you will hear some music excerpts.</p>
        <p> After each track, you must indicate which of the selected colours you associated with the music.</p>",0,instruction,,,,,,
true,preload,3,4323,0.0-3.0,10,1,2023-07-28 12:49:37,abf82dad4018d89b46f04ecbbbe65d6b,,"Mozilla/5.0 (Windows NT 10.0; Win64; x64) AppleWebKit/537.36 (KHTML, like Gecko) Chrome/114.0.0.0 Safari/537.36",WebKit,Chrome,114.0.0.0,Windows,10.0,,,,,false,[],[],[],,
,audio-button-response,4,16037,0.0-4.0-0.0,10,1,2023-07-28 12:49:37,abf82dad4018d89b46f04ecbbbe65d6b,,"Mozilla/5.0 (Windows NT 10.0; Win64; x64) AppleWebKit/537.36 (KHTML, like Gecko) Chrome/114.0.0.0 Safari/537.36",WebKit,Chrome,114.0.0.0,Windows,10.0,11488,song3.wav,0,audio_button,,,,,,
,image-button-response,5,27670,0.0-4.0-1.0,10,1,2023-07-28 12:49:37,abf82dad4018d89b46f04ecbbbe65d6b,,"Mozilla/5.0 (Windows NT 10.0; Win64; x64) AppleWebKit/537.36 (KHTML, like Gecko) Chrome/114.0.0.0 Safari/537.36",WebKit,Chrome,114.0.0.0,Windows,10.0,11629,col.png,3,image_button,,,,,,
,html-slider-response,6,30462,0.0-4.0-2.0,10,1,2023-07-28 12:49:37,abf82dad4018d89b46f04ecbbbe65d6b,,"Mozilla/5.0 (Windows NT 10.0; Win64; x64) AppleWebKit/537.36 (KHTML, like Gecko) Chrome/114.0.0.0 Safari/537.36",WebKit,Chrome,114.0.0.0,Windows,10.0,2789,<p>How familiar was this song to you ?</p>,100,text_slider_response,,,,,50,
,audio-button-response,7,43125,0.0-4.0-0.1,10,1,2023-07-28 12:49:37,abf82dad4018d89b46f04ecbbbe65d6b,,"Mozilla/5.0 (Windows NT 10.0; Win64; x64) AppleWebKit/537.36 (KHTML, like Gecko) Chrome/114.0.0.0 Safari/537.36",WebKit,Chrome,114.0.0.0,Windows,10.0,12440,song4.wav,0,audio_button,,,,,,
,image-button-response,8,52019,0.0-4.0-1.1,10,1,2023-07-28 12:49:37,abf82dad4018d89b46f04ecbbbe65d6b,,"Mozilla/5.0 (Windows NT 10.0; Win64; x64) AppleWebKit/537.36 (KHTML, like Gecko) Chrome/114.0.0.0 Safari/537.36",WebKit,Chrome,114.0.0.0,Windows,10.0,8890,col.png,2,image_button,,,,,,
,html-slider-response,9,54353,0.0-4.0-2.1,10,1,2023-07-28 12:49:37,abf82dad4018d89b46f04ecbbbe65d6b,,"Mozilla/5.0 (Windows NT 10.0; Win64; x64) AppleWebKit/537.36 (KHTML, like Gecko) Chrome/114.0.0.0 Safari/537.36",WebKit,Chrome,114.0.0.0,Windows,10.0,2331,<p>How familiar was this song to you ?</p>,100,text_slider_response,,,,,50,
,audio-button-response,10,66640,0.0-4.0-0.2,10,1,2023-07-28 12:49:37,abf82dad4018d89b46f04ecbbbe65d6b,,"Mozilla/5.0 (Windows NT 10.0; Win64; x64) AppleWebKit/537.36 (KHTML, like Gecko) Chrome/114.0.0.0 Safari/537.36",WebKit,Chrome,114.0.0.0,Windows,10.0,12099,song1.wav,0,audio_button,,,,,,
,image-button-response,11,74715,0.0-4.0-1.2,10,1,2023-07-28 12:49:37,abf82dad4018d89b46f04ecbbbe65d6b,,"Mozilla/5.0 (Windows NT 10.0; Win64; x64) AppleWebKit/537.36 (KHTML, like Gecko) Chrome/114.0.0.0 Safari/537.36",WebKit,Chrome,114.0.0.0,Windows,10.0,8069,col.png,2,image_button,,,,,,
,html-slider-response,12,77177,0.0-4.0-2.2,10,1,2023-07-28 12:49:37,abf82dad4018d89b46f04ecbbbe65d6b,,"Mozilla/5.0 (Windows NT 10.0; Win64; x64) AppleWebKit/537.36 (KHTML, like Gecko) Chrome/114.0.0.0 Safari/537.36",WebKit,Chrome,114.0.0.0,Windows,10.0,2457,<p>How familiar was this song to you ?</p>,62,text_slider_response,,,,,50,
,audio-button-response,13,89395,0.0-4.0-0.3,10,1,2023-07-28 12:49:37,abf82dad4018d89b46f04ecbbbe65d6b,,"Mozilla/5.0 (Windows NT 10.0; Win64; x64) AppleWebKit/537.36 (KHTML, like Gecko) Chrome/114.0.0.0 Safari/537.36",WebKit,Chrome,114.0.0.0,Windows,10.0,11629,song2.wav,0,audio_button,,,,,,
,image-button-response,14,92119,0.0-4.0-1.3,10,1,2023-07-28 12:49:37,abf82dad4018d89b46f04ecbbbe65d6b,,"Mozilla/5.0 (Windows NT 10.0; Win64; x64) AppleWebKit/537.36 (KHTML, like Gecko) Chrome/114.0.0.0 Safari/537.36",WebKit,Chrome,114.0.0.0,Windows,10.0,2720,col.png,5,image_button,,,,,,
,html-slider-response,15,94938,0.0-4.0-2.3,10,1,2023-07-28 12:49:37,abf82dad4018d89b46f04ecbbbe65d6b,,"Mozilla/5.0 (Windows NT 10.0; Win64; x64) AppleWebKit/537.36 (KHTML, like Gecko) Chrome/114.0.0.0 Safari/537.36",WebKit,Chrome,114.0.0.0,Windows,10.0,2818,<p>How familiar was this song to you ?</p>,99,text_slider_response,,,,,50,
,survey-multi-choice,16,102209,0.0-5.0-0.0,10,1,2023-07-28 12:49:37,abf82dad4018d89b46f04ecbbbe65d6b,,"Mozilla/5.0 (Windows NT 10.0; Win64; x64) AppleWebKit/537.36 (KHTML, like Gecko) Chrome/114.0.0.0 Safari/537.36",WebKit,Chrome,114.0.0.0,Windows,10.0,7267,,"{""age"":""18 - 25"",""sex"":""Red""}",multi_choice,,,,,,"[0,1,2]"
,html-slider-response,17,106236,0.0-6.0,10,1,2023-07-28 12:49:37,abf82dad4018d89b46f04ecbbbe65d6b,,"Mozilla/5.0 (Windows NT 10.0; Win64; x64) AppleWebKit/537.36 (KHTML, like Gecko) Chrome/114.0.0.0 Safari/537.36",WebKit,Chrome,114.0.0.0,Windows,10.0,4024,<p>Do you regard yourself as a visually creative person??</p>,62,text_slider_response,,,,,50,
true,fullscreen,0,2370,0.0-0.0,14,1,2023-07-28 12:50:56,abf82dad4018d89b46f04ecbbbe65d6b,,Mozilla/5.0 (Windows NT 10.0; Win64; x64; rv:109.0) Gecko/20100101 Firefox/115.0,,Firefox,115.0,Windows,10.0,,,,,,,,,,
,html-button-response,1,3671,0.0-1.0,14,1,2023-07-28 12:50:56,abf82dad4018d89b46f04ecbbbe65d6b,,Mozilla/5.0 (Windows NT 10.0; Win64; x64; rv:109.0) Gecko/20100101 Firefox/115.0,,Firefox,115.0,Windows,10.0,1297,Welcome to the experiment,0,,,,,,,
,html-button-response,2,5185,0.0-2.0,14,1,2023-07-28 12:50:56,abf82dad4018d89b46f04ecbbbe65d6b,,Mozilla/5.0 (Windows NT 10.0; Win64; x64; rv:109.0) Gecko/20100101 Firefox/115.0,,Firefox,115.0,Windows,10.0,1513,"
        <p>In this experiment, you will hear some music excerpts.</p>
        <p> After each track, you must indicate which of the selected colours you associated with the music.</p>",0,instruction,,,,,,
true,preload,3,5186,0.0-3.0,14,1,2023-07-28 12:50:56,abf82dad4018d89b46f04ecbbbe65d6b,,Mozilla/5.0 (Windows NT 10.0; Win64; x64; rv:109.0) Gecko/20100101 Firefox/115.0,,Firefox,115.0,Windows,10.0,,,,,false,[],[],[],,
,audio-button-response,4,17672,0.0-4.0-0.0,14,1,2023-07-28 12:50:56,abf82dad4018d89b46f04ecbbbe65d6b,,Mozilla/5.0 (Windows NT 10.0; Win64; x64; rv:109.0) Gecko/20100101 Firefox/115.0,,Firefox,115.0,Windows,10.0,11829,song1.wav,0,audio_button,,,,,,
,image-button-response,5,25041,0.0-4.0-1.0,14,1,2023-07-28 12:50:56,abf82dad4018d89b46f04ecbbbe65d6b,,Mozilla/5.0 (Windows NT 10.0; Win64; x64; rv:109.0) Gecko/20100101 Firefox/115.0,,Firefox,115.0,Windows,10.0,7363,col.png,3,image_button,,,,,,
,html-slider-response,6,29802,0.0-4.0-2.0,14,1,2023-07-28 12:50:56,abf82dad4018d89b46f04ecbbbe65d6b,,Mozilla/5.0 (Windows NT 10.0; Win64; x64; rv:109.0) Gecko/20100101 Firefox/115.0,,Firefox,115.0,Windows,10.0,4759,<p>How familiar was this song to you ?</p>,100,text_slider_response,,,,,50,
,audio-button-response,7,43026,0.0-4.0-0.1,14,1,2023-07-28 12:50:56,abf82dad4018d89b46f04ecbbbe65d6b,,Mozilla/5.0 (Windows NT 10.0; Win64; x64; rv:109.0) Gecko/20100101 Firefox/115.0,,Firefox,115.0,Windows,10.0,12560,song2.wav,0,audio_button,,,,,,
,image-button-response,8,49558,0.0-4.0-1.1,14,1,2023-07-28 12:50:56,abf82dad4018d89b46f04ecbbbe65d6b,,Mozilla/5.0 (Windows NT 10.0; Win64; x64; rv:109.0) Gecko/20100101 Firefox/115.0,,Firefox,115.0,Windows,10.0,6530,col.png,1,image_button,,,,,,
,html-slider-response,9,53674,0.0-4.0-2.1,14,1,2023-07-28 12:50:56,abf82dad4018d89b46f04ecbbbe65d6b,,Mozilla/5.0 (Windows NT 10.0; Win64; x64; rv:109.0) Gecko/20100101 Firefox/115.0,,Firefox,115.0,Windows,10.0,4114,<p>How familiar was this song to you ?</p>,34,text_slider_response,,,,,50,
,audio-button-response,10,65943,0.0-4.0-0.2,14,1,2023-07-28 12:50:56,abf82dad4018d89b46f04ecbbbe65d6b,,Mozilla/5.0 (Windows NT 10.0; Win64; x64; rv:109.0) Gecko/20100101 Firefox/115.0,,Firefox,115.0,Windows,10.0,11621,song4.wav,0,audio_button,,,,,,
,image-button-response,11,68593,0.0-4.0-1.2,14,1,2023-07-28 12:50:56,abf82dad4018d89b46f04ecbbbe65d6b,,Mozilla/5.0 (Windows NT 10.0; Win64; x64; rv:109.0) Gecko/20100101 Firefox/115.0,,Firefox,115.0,Windows,10.0,2646,col.png,2,image_button,,,,,,
,html-slider-response,12,71958,0.0-4.0-2.2,14,1,2023-07-28 12:50:56,abf82dad4018d89b46f04ecbbbe65d6b,,Mozilla/5.0 (Windows NT 10.0; Win64; x64; rv:109.0) Gecko/20100101 Firefox/115.0,,Firefox,115.0,Windows,10.0,3362,<p>How familiar was this song to you ?</p>,19,text_slider_response,,,,,50,
,audio-button-response,13,85084,0.0-4.0-0.3,14,1,2023-07-28 12:50:56,abf82dad4018d89b46f04ecbbbe65d6b,,Mozilla/5.0 (Windows NT 10.0; Win64; x64; rv:109.0) Gecko/20100101 Firefox/115.0,,Firefox,115.0,Windows,10.0,12440,song3.wav,0,audio_button,,,,,,
,image-button-response,14,92692,0.0-4.0-1.3,14,1,2023-07-28 12:50:56,abf82dad4018d89b46f04ecbbbe65d6b,,Mozilla/5.0 (Windows NT 10.0; Win64; x64; rv:109.0) Gecko/20100101 Firefox/115.0,,Firefox,115.0,Windows,10.0,7602,col.png,1,image_button,,,,,,
,html-slider-response,15,96231,0.0-4.0-2.3,14,1,2023-07-28 12:50:56,abf82dad4018d89b46f04ecbbbe65d6b,,Mozilla/5.0 (Windows NT 10.0; Win64; x64; rv:109.0) Gecko/20100101 Firefox/115.0,,Firefox,115.0,Windows,10.0,3537,<p>How familiar was this song to you ?</p>,100,text_slider_response,,,,,50,
,survey-multi-choice,16,116475,0.0-5.0-0.0,14,1,2023-07-28 12:50:56,abf82dad4018d89b46f04ecbbbe65d6b,,Mozilla/5.0 (Windows NT 10.0; Win64; x64; rv:109.0) Gecko/20100101 Firefox/115.0,,Firefox,115.0,Windows,10.0,20241,,"{""age"":""41 or older"",""sex"":""Red""}",multi_choice,,,,,,"[0,1,2]"
,html-slider-response,17,123959,0.0-6.0,14,1,2023-07-28 12:50:56,abf82dad4018d89b46f04ecbbbe65d6b,,Mozilla/5.0 (Windows NT 10.0; Win64; x64; rv:109.0) Gecko/20100101 Firefox/115.0,,Firefox,115.0,Windows,10.0,7482,<p>Do you regard yourself as a visually creative person??</p>,51,text_slider_response,,,,,50,
,html-slider-response,18,128958,0.0-7.0,14,1,2023-07-28 12:50:56,abf82dad4018d89b46f04ecbbbe65d6b,,Mozilla/5.0 (Windows NT 10.0; Win64; x64; rv:109.0) Gecko/20100101 Firefox/115.0,,Firefox,115.0,Windows,10.0,4997,<p>Do you regard yourself as a musician??</p>,28,text_slider_response,,,,,50,
true,fullscreen,19,129968,0.0-8.0,14,1,2023-07-28 12:50:56,abf82dad4018d89b46f04ecbbbe65d6b,,Mozilla/5.0 (Windows NT 10.0; Win64; x64; rv:109.0) Gecko/20100101 Firefox/115.0,,Firefox,115.0,Windows,10.0,,,,,,,,,,
true,fullscreen,0,4052,0.0-0.0,8,1,2023-07-28 12:47:46,abf82dad4018d89b46f04ecbbbe65d6b,,"Mozilla/5.0 (Macintosh; Intel Mac OS X 10_15_7) AppleWebKit/605.1.15 (KHTML, like Gecko) Version/15.6.1 Safari/605.1.15",Macintosh,Safari,15.6.1,OS X,10_15_7,,,,,,,,,,
,html-button-response,1,5429,0.0-1.0,8,1,2023-07-28 12:47:46,abf82dad4018d89b46f04ecbbbe65d6b,,"Mozilla/5.0 (Macintosh; Intel Mac OS X 10_15_7) AppleWebKit/605.1.15 (KHTML, like Gecko) Version/15.6.1 Safari/605.1.15",Macintosh,Safari,15.6.1,OS X,10_15_7,1374,Welcome to the experiment,0,,,,,,,
,html-button-response,2,9852,0.0-2.0,8,1,2023-07-28 12:47:46,abf82dad4018d89b46f04ecbbbe65d6b,,"Mozilla/5.0 (Macintosh; Intel Mac OS X 10_15_7) AppleWebKit/605.1.15 (KHTML, like Gecko) Version/15.6.1 Safari/605.1.15",Macintosh,Safari,15.6.1,OS X,10_15_7,4420,"
        <p>In this experiment, you will hear some music excerpts.</p>
        <p> After each track, you must indicate which of the selected colours you associated with the music.</p>",0,instruction,,,,,,
true,preload,3,9853,0.0-3.0,8,1,2023-07-28 12:47:46,abf82dad4018d89b46f04ecbbbe65d6b,,"Mozilla/5.0 (Macintosh; Intel Mac OS X 10_15_7) AppleWebKit/605.1.15 (KHTML, like Gecko) Version/15.6.1 Safari/605.1.15",Macintosh,Safari,15.6.1,OS X,10_15_7,,,,,false,[],[],[],,
,audio-button-response,4,22111,0.0-4.0-0.0,8,1,2023-07-28 12:47:46,abf82dad4018d89b46f04ecbbbe65d6b,,"Mozilla/5.0 (Macintosh; Intel Mac OS X 10_15_7) AppleWebKit/605.1.15 (KHTML, like Gecko) Version/15.6.1 Safari/605.1.15",Macintosh,Safari,15.6.1,OS X,10_15_7,11764,song3.wav,0,audio_button,,,,,,
,image-button-response,5,30260,0.0-4.0-1.0,8,1,2023-07-28 12:47:46,abf82dad4018d89b46f04ecbbbe65d6b,,"Mozilla/5.0 (Macintosh; Intel Mac OS X 10_15_7) AppleWebKit/605.1.15 (KHTML, like Gecko) Version/15.6.1 Safari/605.1.15",Macintosh,Safari,15.6.1,OS X,10_15_7,8145,col.png,3,image_button,,,,,,
,html-slider-response,6,34530,0.0-4.0-2.0,8,1,2023-07-28 12:47:46,abf82dad4018d89b46f04ecbbbe65d6b,,"Mozilla/5.0 (Macintosh; Intel Mac OS X 10_15_7) AppleWebKit/605.1.15 (KHTML, like Gecko) Version/15.6.1 Safari/605.1.15",Macintosh,Safari,15.6.1,OS X,10_15_7,4266,<p>How familiar was this song to you ?</p>,94,text_slider_response,,,,,50,
,audio-button-response,7,46057,0.0-4.0-0.1,8,1,2023-07-28 12:47:46,abf82dad4018d89b46f04ecbbbe65d6b,,"Mozilla/5.0 (Macintosh; Intel Mac OS X 10_15_7) AppleWebKit/605.1.15 (KHTML, like Gecko) Version/15.6.1 Safari/605.1.15",Macintosh,Safari,15.6.1,OS X,10_15_7,10986,song4.wav,0,audio_button,,,,,,
,image-button-response,8,48624,0.0-4.0-1.1,8,1,2023-07-28 12:47:46,abf82dad4018d89b46f04ecbbbe65d6b,,"Mozilla/5.0 (Macintosh; Intel Mac OS X 10_15_7) AppleWebKit/605.1.15 (KHTML, like Gecko) Version/15.6.1 Safari/605.1.15",Macintosh,Safari,15.6.1,OS X,10_15_7,2564,col.png,5,image_button,,,,,,
,html-slider-response,9,51979,0.0-4.0-2.1,8,1,2023-07-28 12:47:46,abf82dad4018d89b46f04ecbbbe65d6b,,"Mozilla/5.0 (Macintosh; Intel Mac OS X 10_15_7) AppleWebKit/605.1.15 (KHTML, like Gecko) Version/15.6.1 Safari/605.1.15",Macintosh,Safari,15.6.1,OS X,10_15_7,3353,<p>How familiar was this song to you ?</p>,98,text_slider_response,,,,,50,
,audio-button-response,10,64109,0.0-4.0-0.2,8,1,2023-07-28 12:47:46,abf82dad4018d89b46f04ecbbbe65d6b,,"Mozilla/5.0 (Macintosh; Intel Mac OS X 10_15_7) AppleWebKit/605.1.15 (KHTML, like Gecko) Version/15.6.1 Safari/605.1.15",Macintosh,Safari,15.6.1,OS X,10_15_7,11709,song1.wav,0,audio_button,,,,,,
,image-button-response,11,69912,0.0-4.0-1.2,8,1,2023-07-28 12:47:46,abf82dad4018d89b46f04ecbbbe65d6b,,"Mozilla/5.0 (Macintosh; Intel Mac OS X 10_15_7) AppleWebKit/605.1.15 (KHTML, like Gecko) Version/15.6.1 Safari/605.1.15",Macintosh,Safari,15.6.1,OS X,10_15_7,5801,col.png,5,image_button,,,,,,
,html-slider-response,12,73913,0.0-4.0-2.2,8,1,2023-07-28 12:47:46,abf82dad4018d89b46f04ecbbbe65d6b,,"Mozilla/5.0 (Macintosh; Intel Mac OS X 10_15_7) AppleWebKit/605.1.15 (KHTML, like Gecko) Version/15.6.1 Safari/605.1.15",Macintosh,Safari,15.6.1,OS X,10_15_7,3999,<p>How familiar was this song to you ?</p>,97,text_slider_response,,,,,50,
,audio-button-response,13,86890,0.0-4.0-0.3,8,1,2023-07-28 12:47:46,abf82dad4018d89b46f04ecbbbe65d6b,,"Mozilla/5.0 (Macintosh; Intel Mac OS X 10_15_7) AppleWebKit/605.1.15 (KHTML, like Gecko) Version/15.6.1 Safari/605.1.15",Macintosh,Safari,15.6.1,OS X,10_15_7,12353,song2.wav,0,audio_button,,,,,,
,image-button-response,14,91535,0.0-4.0-1.3,8,1,2023-07-28 12:47:46,abf82dad4018d89b46f04ecbbbe65d6b,,"Mozilla/5.0 (Macintosh; Intel Mac OS X 10_15_7) AppleWebKit/605.1.15 (KHTML, like Gecko) Version/15.6.1 Safari/605.1.15",Macintosh,Safari,15.6.1,OS X,10_15_7,4643,col.png,4,image_button,,,,,,
,html-slider-response,15,97327,0.0-4.0-2.3,8,1,2023-07-28 12:47:46,abf82dad4018d89b46f04ecbbbe65d6b,,"Mozilla/5.0 (Macintosh; Intel Mac OS X 10_15_7) AppleWebKit/605.1.15 (KHTML, like Gecko) Version/15.6.1 Safari/605.1.15",Macintosh,Safari,15.6.1,OS X,10_15_7,5790,<p>How familiar was this song to you ?</p>,96,text_slider_response,,,,,50,
,survey-multi-choice,16,108957,0.0-5.0-0.0,8,1,2023-07-28 12:47:46,abf82dad4018d89b46f04ecbbbe65d6b,,"Mozilla/5.0 (Macintosh; Intel Mac OS X 10_15_7) AppleWebKit/605.1.15 (KHTML, like Gecko) Version/15.6.1 Safari/605.1.15",Macintosh,Safari,15.6.1,OS X,10_15_7,11626,,"{""age"":""26 - 32"",""sex"":""Blue""}",multi_choice,,,,,,"[0,1,2]"
,html-slider-response,17,113213,0.0-6.0,8,1,2023-07-28 12:47:46,abf82dad4018d89b46f04ecbbbe65d6b,,"Mozilla/5.0 (Macintosh; Intel Mac OS X 10_15_7) AppleWebKit/605.1.15 (KHTML, like Gecko) Version/15.6.1 Safari/605.1.15",Macintosh,Safari,15.6.1,OS X,10_15_7,4253,<p>Do you regard yourself as a visually creative person??</p>,77,text_slider_response,,,,,50,
,html-slider-response,18,117299,0.0-7.0,8,1,2023-07-28 12:47:46,abf82dad4018d89b46f04ecbbbe65d6b,,"Mozilla/5.0 (Macintosh; Intel Mac OS X 10_15_7) AppleWebKit/605.1.15 (KHTML, like Gecko) Version/15.6.1 Safari/605.1.15",Macintosh,Safari,15.6.1,OS X,10_15_7,4083,<p>Do you regard yourself as a musician??</p>,68,text_slider_response,,,,,50,
true,fullscreen,19,118302,0.0-8.0,8,1,2023-07-28 12:47:46,abf82dad4018d89b46f04ecbbbe65d6b,,"Mozilla/5.0 (Macintosh; Intel Mac OS X 10_15_7) AppleWebKit/605.1.15 (KHTML, like Gecko) Version/15.6.1 Safari/605.1.15",Macintosh,Safari,15.6.1,OS X,10_15_7,,,,,,,,,,
true,fullscreen,0,5769,0.0-0.0,7,1,2023-07-28 12:47:18,abf82dad4018d89b46f04ecbbbe65d6b,,"Mozilla/5.0 (Windows NT 10.0; Win64; x64) AppleWebKit/537.36 (KHTML, like Gecko) Chrome/115.0.0.0 Safari/537.36",WebKit,Chrome,115.0.0.0,Windows,10.0,,,,,,,,,,
,html-button-response,1,7171,0.0-1.0,7,1,2023-07-28 12:47:18,abf82dad4018d89b46f04ecbbbe65d6b,,"Mozilla/5.0 (Windows NT 10.0; Win64; x64) AppleWebKit/537.36 (KHTML, like Gecko) Chrome/115.0.0.0 Safari/537.36",WebKit,Chrome,115.0.0.0,Windows,10.0,1398,Welcome to the experiment,0,,,,,,,
,html-button-response,2,17051,0.0-2.0,7,1,2023-07-28 12:47:18,abf82dad4018d89b46f04ecbbbe65d6b,,"Mozilla/5.0 (Windows NT 10.0; Win64; x64) AppleWebKit/537.36 (KHTML, like Gecko) Chrome/115.0.0.0 Safari/537.36",WebKit,Chrome,115.0.0.0,Windows,10.0,9880,"
        <p>In this experiment, you will hear some music excerpts.</p>
        <p> After each track, you must indicate which of the selected colours you associated with the music.</p>",0,instruction,,,,,,
true,preload,3,17052,0.0-3.0,7,1,2023-07-28 12:47:18,abf82dad4018d89b46f04ecbbbe65d6b,,"Mozilla/5.0 (Windows NT 10.0; Win64; x64) AppleWebKit/537.36 (KHTML, like Gecko) Chrome/115.0.0.0 Safari/537.36",WebKit,Chrome,115.0.0.0,Windows,10.0,,,,,false,[],[],[],,
,audio-button-response,4,29885,0.0-4.0-0.0,7,1,2023-07-28 12:47:18,abf82dad4018d89b46f04ecbbbe65d6b,,"Mozilla/5.0 (Windows NT 10.0; Win64; x64) AppleWebKit/537.36 (KHTML, like Gecko) Chrome/115.0.0.0 Safari/537.36",WebKit,Chrome,115.0.0.0,Windows,10.0,12424,song1.wav,0,audio_button,,,,,,
,image-button-response,5,37607,0.0-4.0-1.0,7,1,2023-07-28 12:47:18,abf82dad4018d89b46f04ecbbbe65d6b,,"Mozilla/5.0 (Windows NT 10.0; Win64; x64) AppleWebKit/537.36 (KHTML, like Gecko) Chrome/115.0.0.0 Safari/537.36",WebKit,Chrome,115.0.0.0,Windows,10.0,7720,col.png,5,image_button,,,,,,
,html-slider-response,6,42109,0.0-4.0-2.0,7,1,2023-07-28 12:47:18,abf82dad4018d89b46f04ecbbbe65d6b,,"Mozilla/5.0 (Windows NT 10.0; Win64; x64) AppleWebKit/537.36 (KHTML, like Gecko) Chrome/115.0.0.0 Safari/537.36",WebKit,Chrome,115.0.0.0,Windows,10.0,4501,<p>How familiar was this song to you ?</p>,88,text_slider_response,,,,,50,
,audio-button-response,7,53589,0.0-4.0-0.1,7,1,2023-07-28 12:47:18,abf82dad4018d89b46f04ecbbbe65d6b,,"Mozilla/5.0 (Windows NT 10.0; Win64; x64) AppleWebKit/537.36 (KHTML, like Gecko) Chrome/115.0.0.0 Safari/537.36",WebKit,Chrome,115.0.0.0,Windows,10.0,11040,song3.wav,0,audio_button,,,,,,
,image-button-response,8,59501,0.0-4.0-1.1,7,1,2023-07-28 12:47:18,abf82dad4018d89b46f04ecbbbe65d6b,,"Mozilla/5.0 (Windows NT 10.0; Win64; x64) AppleWebKit/537.36 (KHTML, like Gecko) Chrome/115.0.0.0 Safari/537.36",WebKit,Chrome,115.0.0.0,Windows,10.0,5910,col.png,3,image_button,,,,,,
,html-slider-response,9,63765,0.0-4.0-2.1,7,1,2023-07-28 12:47:18,abf82dad4018d89b46f04ecbbbe65d6b,,"Mozilla/5.0 (Windows NT 10.0; Win64; x64) AppleWebKit/537.36 (KHTML, like Gecko) Chrome/115.0.0.0 Safari/537.36",WebKit,Chrome,115.0.0.0,Windows,10.0,4263,<p>How familiar was this song to you ?</p>,98,text_slider_response,,,,,50,
,audio-button-response,10,75109,0.0-4.0-0.2,7,1,2023-07-28 12:47:18,abf82dad4018d89b46f04ecbbbe65d6b,,"Mozilla/5.0 (Windows NT 10.0; Win64; x64) AppleWebKit/537.36 (KHTML, like Gecko) Chrome/115.0.0.0 Safari/537.36",WebKit,Chrome,115.0.0.0,Windows,10.0,10928,song4.wav,0,audio_button,,,,,,
,image-button-response,11,79232,0.0-4.0-1.2,7,1,2023-07-28 12:47:18,abf82dad4018d89b46f04ecbbbe65d6b,,"Mozilla/5.0 (Windows NT 10.0; Win64; x64) AppleWebKit/537.36 (KHTML, like Gecko) Chrome/115.0.0.0 Safari/537.36",WebKit,Chrome,115.0.0.0,Windows,10.0,4121,col.png,3,image_button,,,,,,
,html-slider-response,12,85229,0.0-4.0-2.2,7,1,2023-07-28 12:47:18,abf82dad4018d89b46f04ecbbbe65d6b,,"Mozilla/5.0 (Windows NT 10.0; Win64; x64) AppleWebKit/537.36 (KHTML, like Gecko) Chrome/115.0.0.0 Safari/537.36",WebKit,Chrome,115.0.0.0,Windows,10.0,5995,<p>How familiar was this song to you ?</p>,96,text_slider_response,,,,,50,
,audio-button-response,13,101014,0.0-4.0-0.3,7,1,2023-07-28 12:47:18,abf82dad4018d89b46f04ecbbbe65d6b,,"Mozilla/5.0 (Windows NT 10.0; Win64; x64) AppleWebKit/537.36 (KHTML, like Gecko) Chrome/115.0.0.0 Safari/537.36",WebKit,Chrome,115.0.0.0,Windows,10.0,15336,song2.wav,0,audio_button,,,,,,
,image-button-response,14,106349,0.0-4.0-1.3,7,1,2023-07-28 12:47:18,abf82dad4018d89b46f04ecbbbe65d6b,,"Mozilla/5.0 (Windows NT 10.0; Win64; x64) AppleWebKit/537.36 (KHTML, like Gecko) Chrome/115.0.0.0 Safari/537.36",WebKit,Chrome,115.0.0.0,Windows,10.0,5334,col.png,0,image_button,,,,,,
,html-slider-response,15,108333,0.0-4.0-2.3,7,1,2023-07-28 12:47:18,abf82dad4018d89b46f04ecbbbe65d6b,,"Mozilla/5.0 (Windows NT 10.0; Win64; x64) AppleWebKit/537.36 (KHTML, like Gecko) Chrome/115.0.0.0 Safari/537.36",WebKit,Chrome,115.0.0.0,Windows,10.0,1983,<p>How familiar was this song to you ?</p>,28,text_slider_response,,,,,50,
,survey-multi-choice,16,122702,0.0-5.0-0.0,7,1,2023-07-28 12:47:18,abf82dad4018d89b46f04ecbbbe65d6b,,"Mozilla/5.0 (Windows NT 10.0; Win64; x64) AppleWebKit/537.36 (KHTML, like Gecko) Chrome/115.0.0.0 Safari/537.36",WebKit,Chrome,115.0.0.0,Windows,10.0,14367,,"{""age"":""33 - 40"",""sex"":""Green""}",multi_choice,,,,,,"[0,1,2]"
,html-slider-response,17,128893,0.0-6.0,7,1,2023-07-28 12:47:18,abf82dad4018d89b46f04ecbbbe65d6b,,"Mozilla/5.0 (Windows NT 10.0; Win64; x64) AppleWebKit/537.36 (KHTML, like Gecko) Chrome/115.0.0.0 Safari/537.36",WebKit,Chrome,115.0.0.0,Windows,10.0,6188,<p>Do you regard yourself as a visually creative person??</p>,59,text_slider_response,,,,,50,
,html-slider-response,18,136357,0.0-7.0,7,1,2023-07-28 12:47:18,abf82dad4018d89b46f04ecbbbe65d6b,,"Mozilla/5.0 (Windows NT 10.0; Win64; x64) AppleWebKit/537.36 (KHTML, like Gecko) Chrome/115.0.0.0 Safari/537.36",WebKit,Chrome,115.0.0.0,Windows,10.0,7462,<p>Do you regard yourself as a musician??</p>,63,text_slider_response,,,,,50,
true,fullscreen,19,137359,0.0-8.0,7,1,2023-07-28 12:47:18,abf82dad4018d89b46f04ecbbbe65d6b,,"Mozilla/5.0 (Windows NT 10.0; Win64; x64) AppleWebKit/537.36 (KHTML, like Gecko) Chrome/115.0.0.0 Safari/537.36",WebKit,Chrome,115.0.0.0,Windows,10.0,,,,,,,,,,
true,fullscreen,0,2244,0.0-0.0,9,1,2023-07-28 12:48:51,abf82dad4018d89b46f04ecbbbe65d6b,,"Mozilla/5.0 (Windows NT 10.0; Win64; x64) AppleWebKit/537.36 (KHTML, like Gecko) Chrome/114.0.0.0 Safari/537.36",WebKit,Chrome,114.0.0.0,Windows,10.0,,,,,,,,,,
,html-button-response,1,3668,0.0-1.0,9,1,2023-07-28 12:48:51,abf82dad4018d89b46f04ecbbbe65d6b,,"Mozilla/5.0 (Windows NT 10.0; Win64; x64) AppleWebKit/537.36 (KHTML, like Gecko) Chrome/114.0.0.0 Safari/537.36",WebKit,Chrome,114.0.0.0,Windows,10.0,1422,Welcome to the experiment,0,,,,,,,
,html-button-response,2,6255,0.0-2.0,9,1,2023-07-28 12:48:51,abf82dad4018d89b46f04ecbbbe65d6b,,"Mozilla/5.0 (Windows NT 10.0; Win64; x64) AppleWebKit/537.36 (KHTML, like Gecko) Chrome/114.0.0.0 Safari/537.36",WebKit,Chrome,114.0.0.0,Windows,10.0,2586,"
        <p>In this experiment, you will hear some music excerpts.</p>
        <p> After each track, you must indicate which of the selected colours you associated with the music.</p>",0,instruction,,,,,,
true,preload,3,6256,0.0-3.0,9,1,2023-07-28 12:48:51,abf82dad4018d89b46f04ecbbbe65d6b,,"Mozilla/5.0 (Windows NT 10.0; Win64; x64) AppleWebKit/537.36 (KHTML, like Gecko) Chrome/114.0.0.0 Safari/537.36",WebKit,Chrome,114.0.0.0,Windows,10.0,,,,,false,[],[],[],,
,audio-button-response,4,18971,0.0-4.0-0.0,9,1,2023-07-28 12:48:51,abf82dad4018d89b46f04ecbbbe65d6b,,"Mozilla/5.0 (Windows NT 10.0; Win64; x64) AppleWebKit/537.36 (KHTML, like Gecko) Chrome/114.0.0.0 Safari/537.36",WebKit,Chrome,114.0.0.0,Windows,10.0,12472,song4.wav,0,audio_button,,,,,,
,image-button-response,5,24811,0.0-4.0-1.0,9,1,2023-07-28 12:48:51,abf82dad4018d89b46f04ecbbbe65d6b,,"Mozilla/5.0 (Windows NT 10.0; Win64; x64) AppleWebKit/537.36 (KHTML, like Gecko) Chrome/114.0.0.0 Safari/537.36",WebKit,Chrome,114.0.0.0,Windows,10.0,5838,col.png,1,image_button,,,,,,
,html-slider-response,6,28276,0.0-4.0-2.0,9,1,2023-07-28 12:48:51,abf82dad4018d89b46f04ecbbbe65d6b,,"Mozilla/5.0 (Windows NT 10.0; Win64; x64) AppleWebKit/537.36 (KHTML, like Gecko) Chrome/114.0.0.0 Safari/537.36",WebKit,Chrome,114.0.0.0,Windows,10.0,3463,<p>How familiar was this song to you ?</p>,94,text_slider_response,,,,,50,
,audio-button-response,7,40733,0.0-4.0-0.1,9,1,2023-07-28 12:48:51,abf82dad4018d89b46f04ecbbbe65d6b,,"Mozilla/5.0 (Windows NT 10.0; Win64; x64) AppleWebKit/537.36 (KHTML, like Gecko) Chrome/114.0.0.0 Safari/537.36",WebKit,Chrome,114.0.0.0,Windows,10.0,12221,song1.wav,0,audio_button,,,,,,
,image-button-response,8,42992,0.0-4.0-1.1,9,1,2023-07-28 12:48:51,abf82dad4018d89b46f04ecbbbe65d6b,,"Mozilla/5.0 (Windows NT 10.0; Win64; x64) AppleWebKit/537.36 (KHTML, like Gecko) Chrome/114.0.0.0 Safari/537.36",WebKit,Chrome,114.0.0.0,Windows,10.0,2257,col.png,5,image_button,,,,,,
,html-slider-response,9,46199,0.0-4.0-2.1,9,1,2023-07-28 12:48:51,abf82dad4018d89b46f04ecbbbe65d6b,,"Mozilla/5.0 (Windows NT 10.0; Win64; x64) AppleWebKit/537.36 (KHTML, like Gecko) Chrome/114.0.0.0 Safari/537.36",WebKit,Chrome,114.0.0.0,Windows,10.0,3206,<p>How familiar was this song to you ?</p>,0,text_slider_response,,,,,50,
,audio-button-response,10,59042,0.0-4.0-0.2,9,1,2023-07-28 12:48:51,abf82dad4018d89b46f04ecbbbe65d6b,,"Mozilla/5.0 (Windows NT 10.0; Win64; x64) AppleWebKit/537.36 (KHTML, like Gecko) Chrome/114.0.0.0 Safari/537.36",WebKit,Chrome,114.0.0.0,Windows,10.0,12581,song2.wav,0,audio_button,,,,,,
,image-button-response,11,61986,0.0-4.0-1.2,9,1,2023-07-28 12:48:51,abf82dad4018d89b46f04ecbbbe65d6b,,"Mozilla/5.0 (Windows NT 10.0; Win64; x64) AppleWebKit/537.36 (KHTML, like Gecko) Chrome/114.0.0.0 Safari/537.36",WebKit,Chrome,114.0.0.0,Windows,10.0,2943,col.png,2,image_button,,,,,,
,html-slider-response,12,65131,0.0-4.0-2.2,9,1,2023-07-28 12:48:51,abf82dad4018d89b46f04ecbbbe65d6b,,"Mozilla/5.0 (Windows NT 10.0; Win64; x64) AppleWebKit/537.36 (KHTML, like Gecko) Chrome/114.0.0.0 Safari/537.36",WebKit,Chrome,114.0.0.0,Windows,10.0,3143,<p>How familiar was this song to you ?</p>,15,text_slider_response,,,,,50,
,audio-button-response,13,76777,0.0-4.0-0.3,9,1,2023-07-28 12:48:51,abf82dad4018d89b46f04ecbbbe65d6b,,"Mozilla/5.0 (Windows NT 10.0; Win64; x64) AppleWebKit/537.36 (KHTML, like Gecko) Chrome/114.0.0.0 Safari/537.36",WebKit,Chrome,114.0.0.0,Windows,10.0,11448,song3.wav,0,audio_button,,,,,,
,image-button-response,14,79887,0.0-4.0-1.3,9,1,2023-07-28 12:48:51,abf82dad4018d89b46f04ecbbbe65d6b,,"Mozilla/5.0 (Windows NT 10.0; Win64; x64) AppleWebKit/537.36 (KHTML, like Gecko) Chrome/114.0.0.0 Safari/537.36",WebKit,Chrome,114.0.0.0,Windows,10.0,3108,col.png,3,image_button,,,,,,
,html-slider-response,15,81836,0.0-4.0-2.3,9,1,2023-07-28 12:48:51,abf82dad4018d89b46f04ecbbbe65d6b,,"Mozilla/5.0 (Windows NT 10.0; Win64; x64) AppleWebKit/537.36 (KHTML, like Gecko) Chrome/114.0.0.0 Safari/537.36",WebKit,Chrome,114.0.0.0,Windows,10.0,1947,<p>How familiar was this song to you ?</p>,76,text_slider_response,,,,,50,
,survey-multi-choice,16,93399,0.0-5.0-0.0,9,1,2023-07-28 12:48:51,abf82dad4018d89b46f04ecbbbe65d6b,,"Mozilla/5.0 (Windows NT 10.0; Win64; x64) AppleWebKit/537.36 (KHTML, like Gecko) Chrome/114.0.0.0 Safari/537.36",WebKit,Chrome,114.0.0.0,Windows,10.0,11560,,"{""age"":""26 - 32"",""sex"":""Blue""}",multi_choice,,,,,,"[0,1,2]"
,html-slider-response,17,98728,0.0-6.0,9,1,2023-07-28 12:48:51,abf82dad4018d89b46f04ecbbbe65d6b,,"Mozilla/5.0 (Windows NT 10.0; Win64; x64) AppleWebKit/537.36 (KHTML, like Gecko) Chrome/114.0.0.0 Safari/537.36",WebKit,Chrome,114.0.0.0,Windows,10.0,5322,<p>Do you regard yourself as a visually creative person??</p>,72,text_slider_response,,,,,50,
true,fullscreen,0,2192,0.0-0.0,13,1,2023-07-28 12:50:52,abf82dad4018d89b46f04ecbbbe65d6b,,"Mozilla/5.0 (Macintosh; Intel Mac OS X 10_15_7) AppleWebKit/537.36 (KHTML, like Gecko) Chrome/115.0.0.0 Safari/537.36",Macintosh,Chrome,115.0.0.0,OS X,10_15_7,,,,,,,,,,
,html-button-response,1,3317,0.0-1.0,13,1,2023-07-28 12:50:52,abf82dad4018d89b46f04ecbbbe65d6b,,"Mozilla/5.0 (Macintosh; Intel Mac OS X 10_15_7) AppleWebKit/537.36 (KHTML, like Gecko) Chrome/115.0.0.0 Safari/537.36",Macintosh,Chrome,115.0.0.0,OS X,10_15_7,1121,Welcome to the experiment,0,,,,,,,
,html-button-response,2,4483,0.0-2.0,13,1,2023-07-28 12:50:52,abf82dad4018d89b46f04ecbbbe65d6b,,"Mozilla/5.0 (Macintosh; Intel Mac OS X 10_15_7) AppleWebKit/537.36 (KHTML, like Gecko) Chrome/115.0.0.0 Safari/537.36",Macintosh,Chrome,115.0.0.0,OS X,10_15_7,1164,"
        <p>In this experiment, you will hear some music excerpts.</p>
        <p> After each track, you must indicate which of the selected colours you associated with the music.</p>",0,instruction,,,,,,
true,preload,3,4485,0.0-3.0,13,1,2023-07-28 12:50:52,abf82dad4018d89b46f04ecbbbe65d6b,,"Mozilla/5.0 (Macintosh; Intel Mac OS X 10_15_7) AppleWebKit/537.36 (KHTML, like Gecko) Chrome/115.0.0.0 Safari/537.36",Macintosh,Chrome,115.0.0.0,OS X,10_15_7,,,,,false,[],[],[],,
,audio-button-response,4,18411,0.0-4.0-0.0,13,1,2023-07-28 12:50:52,abf82dad4018d89b46f04ecbbbe65d6b,,"Mozilla/5.0 (Macintosh; Intel Mac OS X 10_15_7) AppleWebKit/537.36 (KHTML, like Gecko) Chrome/115.0.0.0 Safari/537.36",Macintosh,Chrome,115.0.0.0,OS X,10_15_7,12672,song1.wav,0,audio_button,,,,,,
,image-button-response,5,21131,0.0-4.0-1.0,13,1,2023-07-28 12:50:52,abf82dad4018d89b46f04ecbbbe65d6b,,"Mozilla/5.0 (Macintosh; Intel Mac OS X 10_15_7) AppleWebKit/537.36 (KHTML, like Gecko) Chrome/115.0.0.0 Safari/537.36",Macintosh,Chrome,115.0.0.0,OS X,10_15_7,2717,col.png,2,image_button,,,,,,
,html-slider-response,6,24001,0.0-4.0-2.0,13,1,2023-07-28 12:50:52,abf82dad4018d89b46f04ecbbbe65d6b,,"Mozilla/5.0 (Macintosh; Intel Mac OS X 10_15_7) AppleWebKit/537.36 (KHTML, like Gecko) Chrome/115.0.0.0 Safari/537.36",Macintosh,Chrome,115.0.0.0,OS X,10_15_7,2867,<p>How familiar was this song to you ?</p>,0,text_slider_response,,,,,50,
,audio-button-response,7,36561,0.0-4.0-0.1,13,1,2023-07-28 12:50:52,abf82dad4018d89b46f04ecbbbe65d6b,,"Mozilla/5.0 (Macintosh; Intel Mac OS X 10_15_7) AppleWebKit/537.36 (KHTML, like Gecko) Chrome/115.0.0.0 Safari/537.36",Macintosh,Chrome,115.0.0.0,OS X,10_15_7,11296,song3.wav,0,audio_button,,,,,,
,image-button-response,8,39050,0.0-4.0-1.1,13,1,2023-07-28 12:50:52,abf82dad4018d89b46f04ecbbbe65d6b,,"Mozilla/5.0 (Macintosh; Intel Mac OS X 10_15_7) AppleWebKit/537.36 (KHTML, like Gecko) Chrome/115.0.0.0 Safari/537.36",Macintosh,Chrome,115.0.0.0,OS X,10_15_7,2486,col.png,1,image_button,,,,,,
,html-slider-response,9,41194,0.0-4.0-2.1,13,1,2023-07-28 12:50:52,abf82dad4018d89b46f04ecbbbe65d6b,,"Mozilla/5.0 (Macintosh; Intel Mac OS X 10_15_7) AppleWebKit/537.36 (KHTML, like Gecko) Chrome/115.0.0.0 Safari/537.36",Macintosh,Chrome,115.0.0.0,OS X,10_15_7,2142,<p>How familiar was this song to you ?</p>,100,text_slider_response,,,,,50,
,audio-button-response,10,54623,0.0-4.0-0.2,13,1,2023-07-28 12:50:52,abf82dad4018d89b46f04ecbbbe65d6b,,"Mozilla/5.0 (Macintosh; Intel Mac OS X 10_15_7) AppleWebKit/537.36 (KHTML, like Gecko) Chrome/115.0.0.0 Safari/537.36",Macintosh,Chrome,115.0.0.0,OS X,10_15_7,12096,song4.wav,0,audio_button,,,,,,
,image-button-response,11,57599,0.0-4.0-1.2,13,1,2023-07-28 12:50:52,abf82dad4018d89b46f04ecbbbe65d6b,,"Mozilla/5.0 (Macintosh; Intel Mac OS X 10_15_7) AppleWebKit/537.36 (KHTML, like Gecko) Chrome/115.0.0.0 Safari/537.36",Macintosh,Chrome,115.0.0.0,OS X,10_15_7,2973,col.png,4,image_button,,,,,,
,html-slider-response,12,59744,0.0-4.0-2.2,13,1,2023-07-28 12:50:52,abf82dad4018d89b46f04ecbbbe65d6b,,"Mozilla/5.0 (Macintosh; Intel Mac OS X 10_15_7) AppleWebKit/537.36 (KHTML, like Gecko) Chrome/115.0.0.0 Safari/537.36",Macintosh,Chrome,115.0.0.0,OS X,10_15_7,2143,<p>How familiar was this song to you ?</p>,100,text_slider_response,,,,,50,
,audio-button-response,13,73713,0.0-4.0-0.3,13,1,2023-07-28 12:50:52,abf82dad4018d89b46f04ecbbbe65d6b,,"Mozilla/5.0 (Macintosh; Intel Mac OS X 10_15_7) AppleWebKit/537.36 (KHTML, like Gecko) Chrome/115.0.0.0 Safari/537.36",Macintosh,Chrome,115.0.0.0,OS X,10_15_7,12464,song2.wav,0,audio_button,,,,,,
,image-button-response,14,76465,0.0-4.0-1.3,13,1,2023-07-28 12:50:52,abf82dad4018d89b46f04ecbbbe65d6b,,"Mozilla/5.0 (Macintosh; Intel Mac OS X 10_15_7) AppleWebKit/537.36 (KHTML, like Gecko) Chrome/115.0.0.0 Safari/537.36",Macintosh,Chrome,115.0.0.0,OS X,10_15_7,2748,col.png,2,image_button,,,,,,
,html-slider-response,15,79447,0.0-4.0-2.3,13,1,2023-07-28 12:50:52,abf82dad4018d89b46f04ecbbbe65d6b,,"Mozilla/5.0 (Macintosh; Intel Mac OS X 10_15_7) AppleWebKit/537.36 (KHTML, like Gecko) Chrome/115.0.0.0 Safari/537.36",Macintosh,Chrome,115.0.0.0,OS X,10_15_7,2980,<p>How familiar was this song to you ?</p>,100,text_slider_response,,,,,50,
,survey-multi-choice,16,89503,0.0-5.0-0.0,13,1,2023-07-28 12:50:52,abf82dad4018d89b46f04ecbbbe65d6b,,"Mozilla/5.0 (Macintosh; Intel Mac OS X 10_15_7) AppleWebKit/537.36 (KHTML, like Gecko) Chrome/115.0.0.0 Safari/537.36",Macintosh,Chrome,115.0.0.0,OS X,10_15_7,10052,,"{""age"":""18 - 25"",""sex"":""Green""}",multi_choice,,,,,,"[0,1,2]"
,html-slider-response,17,93522,0.0-6.0,13,1,2023-07-28 12:50:52,abf82dad4018d89b46f04ecbbbe65d6b,,"Mozilla/5.0 (Macintosh; Intel Mac OS X 10_15_7) AppleWebKit/537.36 (KHTML, like Gecko) Chrome/115.0.0.0 Safari/537.36",Macintosh,Chrome,115.0.0.0,OS X,10_15_7,4013,<p>Do you regard yourself as a visually creative person??</p>,60,text_slider_response,,,,,50,
