success,trial_type,trial_index,time_elapsed,internal_node_id,run_id,condition,recorded_at,source_code_version,ip,user_agent,device,browser,browser_version,platform,platform_version,rt,stimulus,response,task,question_order,timeout,failed_images,failed_audio,failed_video,slider_start
true,fullscreen,0,5727,0.0-0.0,16,1,2023-07-28 12:48:49,1d0798adfa59f9e8acce3717d57b77cf,,Mozilla/5.0 (Macintosh; Intel Mac OS X 10.15; rv:109.0) Gecko/20100101 Firefox/115.0,Macintosh,Firefox,115.0,OS X,10.15,,,,,,,,,,
,html-button-response,1,8619,0.0-1.0,16,1,2023-07-28 12:48:49,1d0798adfa59f9e8acce3717d57b77cf,,Mozilla/5.0 (Macintosh; Intel Mac OS X 10.15; rv:109.0) Gecko/20100101 Firefox/115.0,Macintosh,Firefox,115.0,OS X,10.15,2890,Welcome to the experiment,0,,,,,,,
,html-button-response,2,31664,0.0-2.0,16,1,2023-07-28 12:48:49,1d0798adfa59f9e8acce3717d57b77cf,,Mozilla/5.0 (Macintosh; Intel Mac OS X 10.15; rv:109.0) Gecko/20100101 Firefox/115.0,Macintosh,Firefox,115.0,OS X,10.15,23043,"This study aims to see if musical experience and training affects the induced emotions of nonvocal music.
                      During this study you will be asked to answer questions considering your musical background.
                      
                      Then you will be presented short music clips and asked to rate them according to
                      how strongly they make you feel certain emotions.",0,instruction,,,,,,
,survey-multi-choice,3,160723,0.0-3.0-0.0,16,1,2023-07-28 12:48:49,1d0798adfa59f9e8acce3717d57b77cf,,Mozilla/5.0 (Macintosh; Intel Mac OS X 10.15; rv:109.0) Gecko/20100101 Firefox/115.0,Macintosh,Firefox,115.0,OS X,10.15,129054,,"{""gender"":""Female"",""msi1"":""10 or more"",""msi2"":""3-4"",""msi3"":""1"",""msi4"":""6-9"",""msi5"":""2""}",multi_choice,"[0,1,2,3,4,5]",,,,,
true,preload,4,160728,0.0-4.0,16,1,2023-07-28 12:48:49,1d0798adfa59f9e8acce3717d57b77cf,,Mozilla/5.0 (Macintosh; Intel Mac OS X 10.15; rv:109.0) Gecko/20100101 Firefox/115.0,Macintosh,Firefox,115.0,OS X,10.15,,,,,,false,[],[],[],
,audio-slider-response,5,187800,0.0-5.0-0.0,16,1,2023-07-28 12:48:49,1d0798adfa59f9e8acce3717d57b77cf,,Mozilla/5.0 (Macintosh; Intel Mac OS X 10.15; rv:109.0) Gecko/20100101 Firefox/115.0,Macintosh,Firefox,115.0,OS X,10.15,26837,001.mp3,61,audio_slider,,,,,,50
,html-slider-response,6,194820,0.0-5.0-1.0,16,1,2023-07-28 12:48:49,1d0798adfa59f9e8acce3717d57b77cf,,Mozilla/5.0 (Macintosh; Intel Mac OS X 10.15; rv:109.0) Gecko/20100101 Firefox/115.0,Macintosh,Firefox,115.0,OS X,10.15,7016,sad?,37,text_slider_response,,,,,,50
,html-slider-response,7,198647,0.0-5.0-2.0,16,1,2023-07-28 12:48:49,1d0798adfa59f9e8acce3717d57b77cf,,Mozilla/5.0 (Macintosh; Intel Mac OS X 10.15; rv:109.0) Gecko/20100101 Firefox/115.0,Macintosh,Firefox,115.0,OS X,10.15,3826,tender,36,text_slider_response,,,,,,50
,html-slider-response,8,204409,0.0-5.0-3.0,16,1,2023-07-28 12:48:49,1d0798adfa59f9e8acce3717d57b77cf,,Mozilla/5.0 (Macintosh; Intel Mac OS X 10.15; rv:109.0) Gecko/20100101 Firefox/115.0,Macintosh,Firefox,115.0,OS X,10.15,5760,fear,37,text_slider_response,,,,,,50
,html-slider-response,9,213089,0.0-5.0-4.0,16,1,2023-07-28 12:48:49,1d0798adfa59f9e8acce3717d57b77cf,,Mozilla/5.0 (Macintosh; Intel Mac OS X 10.15; rv:109.0) Gecko/20100101 Firefox/115.0,Macintosh,Firefox,115.0,OS X,10.15,8679,anger,11,text_slider_response,,,,,,50
,audio-slider-response,10,239024,0.0-5.0-0.1,16,1,2023-07-28 12:48:49,1d0798adfa59f9e8acce3717d57b77cf,,Mozilla/5.0 (Macintosh; Intel Mac OS X 10.15; rv:109.0) Gecko/20100101 Firefox/115.0,Macintosh,Firefox,115.0,OS X,10.15,25499,061.mp3,3,audio_slider,,,,,,50
,html-slider-response,11,245557,0.0-5.0-1.1,16,1,2023-07-28 12:48:49,1d0798adfa59f9e8acce3717d57b77cf,,Mozilla/5.0 (Macintosh; Intel Mac OS X 10.15; rv:109.0) Gecko/20100101 Firefox/115.0,Macintosh,Firefox,115.0,OS X,10.15,6533,sad?,64,text_slider_response,,,,,,50
,html-slider-response,12,249185,0.0-5.0-2.1,16,1,2023-07-28 12:48:49,1d0798adfa59f9e8acce3717d57b77cf,,Mozilla/5.0 (Macintosh; Intel Mac OS X 10.15; rv:109.0) Gecko/20100101 Firefox/115.0,Macintosh,Firefox,115.0,OS X,10.15,3626,tender,61,text_slider_response,,,,,,50
,html-slider-response,13,254369,0.0-5.0-3.1,16,1,2023-07-28 12:48:49,1d0798adfa59f9e8acce3717d57b77cf,,Mozilla/5.0 (Macintosh; Intel Mac OS X 10.15; rv:109.0) Gecko/20100101 Firefox/115.0,Macintosh,Firefox,115.0,OS X,10.15,5182,fear,19,text_slider_response,,,,,,50
,html-slider-response,14,259470,0.0-5.0-4.1,16,1,2023-07-28 12:48:49,1d0798adfa59f9e8acce3717d57b77cf,,Mozilla/5.0 (Macintosh; Intel Mac OS X 10.15; rv:109.0) Gecko/20100101 Firefox/115.0,Macintosh,Firefox,115.0,OS X,10.15,5098,anger,57,text_slider_response,,,,,,50
,audio-slider-response,15,279201,0.0-5.0-0.2,16,1,2023-07-28 12:48:49,1d0798adfa59f9e8acce3717d57b77cf,,Mozilla/5.0 (Macintosh; Intel Mac OS X 10.15; rv:109.0) Gecko/20100101 Firefox/115.0,Macintosh,Firefox,115.0,OS X,10.15,19531,151.mp3,69,audio_slider,,,,,,50
,html-slider-response,16,282777,0.0-5.0-1.2,16,1,2023-07-28 12:48:49,1d0798adfa59f9e8acce3717d57b77cf,,Mozilla/5.0 (Macintosh; Intel Mac OS X 10.15; rv:109.0) Gecko/20100101 Firefox/115.0,Macintosh,Firefox,115.0,OS X,10.15,3571,sad?,39,text_slider_response,,,,,,50
,html-slider-response,17,285537,0.0-5.0-2.2,16,1,2023-07-28 12:48:49,1d0798adfa59f9e8acce3717d57b77cf,,Mozilla/5.0 (Macintosh; Intel Mac OS X 10.15; rv:109.0) Gecko/20100101 Firefox/115.0,Macintosh,Firefox,115.0,OS X,10.15,2758,tender,66,text_slider_response,,,,,,50
,html-slider-response,18,288626,0.0-5.0-3.2,16,1,2023-07-28 12:48:49,1d0798adfa59f9e8acce3717d57b77cf,,Mozilla/5.0 (Macintosh; Intel Mac OS X 10.15; rv:109.0) Gecko/20100101 Firefox/115.0,Macintosh,Firefox,115.0,OS X,10.15,3087,fear,61,text_slider_response,,,,,,50
,html-slider-response,19,291842,0.0-5.0-4.2,16,1,2023-07-28 12:48:49,1d0798adfa59f9e8acce3717d57b77cf,,Mozilla/5.0 (Macintosh; Intel Mac OS X 10.15; rv:109.0) Gecko/20100101 Firefox/115.0,Macintosh,Firefox,115.0,OS X,10.15,3215,anger,38,text_slider_response,,,,,,50
,audio-slider-response,20,310437,0.0-5.0-0.3,16,1,2023-07-28 12:48:49,1d0798adfa59f9e8acce3717d57b77cf,,Mozilla/5.0 (Macintosh; Intel Mac OS X 10.15; rv:109.0) Gecko/20100101 Firefox/115.0,Macintosh,Firefox,115.0,OS X,10.15,18405,091.mp3,32,audio_slider,,,,,,50
,html-slider-response,21,312814,0.0-5.0-1.3,16,1,2023-07-28 12:48:49,1d0798adfa59f9e8acce3717d57b77cf,,Mozilla/5.0 (Macintosh; Intel Mac OS X 10.15; rv:109.0) Gecko/20100101 Firefox/115.0,Macintosh,Firefox,115.0,OS X,10.15,2375,sad?,39,text_slider_response,,,,,,50
,html-slider-response,22,315581,0.0-5.0-2.3,16,1,2023-07-28 12:48:49,1d0798adfa59f9e8acce3717d57b77cf,,Mozilla/5.0 (Macintosh; Intel Mac OS X 10.15; rv:109.0) Gecko/20100101 Firefox/115.0,Macintosh,Firefox,115.0,OS X,10.15,2766,tender,62,text_slider_response,,,,,,50
,html-slider-response,23,318195,0.0-5.0-3.3,16,1,2023-07-28 12:48:49,1d0798adfa59f9e8acce3717d57b77cf,,Mozilla/5.0 (Macintosh; Intel Mac OS X 10.15; rv:109.0) Gecko/20100101 Firefox/115.0,Macintosh,Firefox,115.0,OS X,10.15,2613,fear,22,text_slider_response,,,,,,50
,html-slider-response,24,321008,0.0-5.0-4.3,16,1,2023-07-28 12:48:49,1d0798adfa59f9e8acce3717d57b77cf,,Mozilla/5.0 (Macintosh; Intel Mac OS X 10.15; rv:109.0) Gecko/20100101 Firefox/115.0,Macintosh,Firefox,115.0,OS X,10.15,2812,anger,30,text_slider_response,,,,,,50
,audio-slider-response,25,347238,0.0-5.0-0.4,16,1,2023-07-28 12:48:49,1d0798adfa59f9e8acce3717d57b77cf,,Mozilla/5.0 (Macintosh; Intel Mac OS X 10.15; rv:109.0) Gecko/20100101 Firefox/115.0,Macintosh,Firefox,115.0,OS X,10.15,25685,031.mp3,66,audio_slider,,,,,,50
,html-slider-response,26,350751,0.0-5.0-1.4,16,1,2023-07-28 12:48:49,1d0798adfa59f9e8acce3717d57b77cf,,Mozilla/5.0 (Macintosh; Intel Mac OS X 10.15; rv:109.0) Gecko/20100101 Firefox/115.0,Macintosh,Firefox,115.0,OS X,10.15,3512,sad?,40,text_slider_response,,,,,,50
,html-slider-response,27,354683,0.0-5.0-2.4,16,1,2023-07-28 12:48:49,1d0798adfa59f9e8acce3717d57b77cf,,Mozilla/5.0 (Macintosh; Intel Mac OS X 10.15; rv:109.0) Gecko/20100101 Firefox/115.0,Macintosh,Firefox,115.0,OS X,10.15,3929,tender,69,text_slider_response,,,,,,50
,html-slider-response,28,358539,0.0-5.0-3.4,16,1,2023-07-28 12:48:49,1d0798adfa59f9e8acce3717d57b77cf,,Mozilla/5.0 (Macintosh; Intel Mac OS X 10.15; rv:109.0) Gecko/20100101 Firefox/115.0,Macintosh,Firefox,115.0,OS X,10.15,3854,fear,59,text_slider_response,,,,,,50
,html-slider-response,29,361006,0.0-5.0-4.4,16,1,2023-07-28 12:48:49,1d0798adfa59f9e8acce3717d57b77cf,,Mozilla/5.0 (Macintosh; Intel Mac OS X 10.15; rv:109.0) Gecko/20100101 Firefox/115.0,Macintosh,Firefox,115.0,OS X,10.15,2465,anger,36,text_slider_response,,,,,,50
,audio-slider-response,30,386142,0.0-5.0-0.5,16,1,2023-07-28 12:48:49,1d0798adfa59f9e8acce3717d57b77cf,,Mozilla/5.0 (Macintosh; Intel Mac OS X 10.15; rv:109.0) Gecko/20100101 Firefox/115.0,Macintosh,Firefox,115.0,OS X,10.15,24608,121.mp3,57,audio_slider,,,,,,50
,html-slider-response,31,390185,0.0-5.0-1.5,16,1,2023-07-28 12:48:49,1d0798adfa59f9e8acce3717d57b77cf,,Mozilla/5.0 (Macintosh; Intel Mac OS X 10.15; rv:109.0) Gecko/20100101 Firefox/115.0,Macintosh,Firefox,115.0,OS X,10.15,4040,sad?,63,text_slider_response,,,,,,50
,html-slider-response,32,393005,0.0-5.0-2.5,16,1,2023-07-28 12:48:49,1d0798adfa59f9e8acce3717d57b77cf,,Mozilla/5.0 (Macintosh; Intel Mac OS X 10.15; rv:109.0) Gecko/20100101 Firefox/115.0,Macintosh,Firefox,115.0,OS X,10.15,2818,tender,63,text_slider_response,,,,,,50
,html-slider-response,33,397894,0.0-5.0-3.5,16,1,2023-07-28 12:48:49,1d0798adfa59f9e8acce3717d57b77cf,,Mozilla/5.0 (Macintosh; Intel Mac OS X 10.15; rv:109.0) Gecko/20100101 Firefox/115.0,Macintosh,Firefox,115.0,OS X,10.15,4887,fear,33,text_slider_response,,,,,,50
,html-slider-response,34,406680,0.0-5.0-4.5,16,1,2023-07-28 12:48:49,1d0798adfa59f9e8acce3717d57b77cf,,Mozilla/5.0 (Macintosh; Intel Mac OS X 10.15; rv:109.0) Gecko/20100101 Firefox/115.0,Macintosh,Firefox,115.0,OS X,10.15,8784,anger,71,text_slider_response,,,,,,50
true,fullscreen,35,407686,0.0-6.0,16,1,2023-07-28 12:48:49,1d0798adfa59f9e8acce3717d57b77cf,,Mozilla/5.0 (Macintosh; Intel Mac OS X 10.15; rv:109.0) Gecko/20100101 Firefox/115.0,Macintosh,Firefox,115.0,OS X,10.15,,,,,,,,,,
,html-keyboard-response,36,459987,0.0-7.0,16,1,2023-07-28 12:48:49,1d0798adfa59f9e8acce3717d57b77cf,,Mozilla/5.0 (Macintosh; Intel Mac OS X 10.15; rv:109.0) Gecko/20100101 Firefox/115.0,Macintosh,Firefox,115.0,OS X,10.15,52300,Thank you for your participation. You may now close the window.,meta,,,,,,,
true,fullscreen,0,2180,0.0-0.0,10,1,2023-07-28 12:46:09,1d0798adfa59f9e8acce3717d57b77cf,,"Mozilla/5.0 (Macintosh; Intel Mac OS X 10_15_7) AppleWebKit/537.36 (KHTML, like Gecko) Chrome/114.0.0.0 Safari/537.36",Macintosh,Chrome,114.0.0.0,OS X,10_15_7,,,,,,,,,,
,html-button-response,1,3442,0.0-1.0,10,1,2023-07-28 12:46:09,1d0798adfa59f9e8acce3717d57b77cf,,"Mozilla/5.0 (Macintosh; Intel Mac OS X 10_15_7) AppleWebKit/537.36 (KHTML, like Gecko) Chrome/114.0.0.0 Safari/537.36",Macintosh,Chrome,114.0.0.0,OS X,10_15_7,1260,Welcome to the experiment,0,,,,,,,
,html-button-response,2,12970,0.0-2.0,10,1,2023-07-28 12:46:09,1d0798adfa59f9e8acce3717d57b77cf,,"Mozilla/5.0 (Macintosh; Intel Mac OS X 10_15_7) AppleWebKit/537.36 (KHTML, like Gecko) Chrome/114.0.0.0 Safari/537.36",Macintosh,Chrome,114.0.0.0,OS X,10_15_7,9526,"This study aims to see if musical experience and training affects the induced emotions of nonvocal music.
                      During this study you will be asked to answer questions considering your musical background.
                      
                      Then you will be presented short music clips and asked to rate them according to
                      how strongly they make you feel certain emotions.",0,instruction,,,,,,
,survey-multi-choice,3,44394,0.0-3.0-0.0,10,1,2023-07-28 12:46:09,1d0798adfa59f9e8acce3717d57b77cf,,"Mozilla/5.0 (Macintosh; Intel Mac OS X 10_15_7) AppleWebKit/537.36 (KHTML, like Gecko) Chrome/114.0.0.0 Safari/537.36",Macintosh,Chrome,114.0.0.0,OS X,10_15_7,31422,,"{""gender"":""Male"",""msi1"":""6-9"",""msi2"":""1"",""msi3"":""3"",""msi4"":""6-9"",""msi5"":""2""}",multi_choice,"[0,1,2,3,4,5]",,,,,
true,preload,4,44397,0.0-4.0,10,1,2023-07-28 12:46:09,1d0798adfa59f9e8acce3717d57b77cf,,"Mozilla/5.0 (Macintosh; Intel Mac OS X 10_15_7) AppleWebKit/537.36 (KHTML, like Gecko) Chrome/114.0.0.0 Safari/537.36",Macintosh,Chrome,114.0.0.0,OS X,10_15_7,,,,,,false,[],[],[],
,audio-slider-response,5,66335,0.0-5.0-0.0,10,1,2023-07-28 12:46:09,1d0798adfa59f9e8acce3717d57b77cf,,"Mozilla/5.0 (Macintosh; Intel Mac OS X 10_15_7) AppleWebKit/537.36 (KHTML, like Gecko) Chrome/114.0.0.0 Safari/537.36",Macintosh,Chrome,114.0.0.0,OS X,10_15_7,21589,031.mp3,71,audio_slider,,,,,,50
,html-slider-response,6,77551,0.0-5.0-1.0,10,1,2023-07-28 12:46:09,1d0798adfa59f9e8acce3717d57b77cf,,"Mozilla/5.0 (Macintosh; Intel Mac OS X 10_15_7) AppleWebKit/537.36 (KHTML, like Gecko) Chrome/114.0.0.0 Safari/537.36",Macintosh,Chrome,114.0.0.0,OS X,10_15_7,11211,sad?,80,text_slider_response,,,,,,50
,html-slider-response,7,79856,0.0-5.0-2.0,10,1,2023-07-28 12:46:09,1d0798adfa59f9e8acce3717d57b77cf,,"Mozilla/5.0 (Macintosh; Intel Mac OS X 10_15_7) AppleWebKit/537.36 (KHTML, like Gecko) Chrome/114.0.0.0 Safari/537.36",Macintosh,Chrome,114.0.0.0,OS X,10_15_7,2303,tender,89,text_slider_response,,,,,,50
,html-slider-response,8,83779,0.0-5.0-3.0,10,1,2023-07-28 12:46:09,1d0798adfa59f9e8acce3717d57b77cf,,"Mozilla/5.0 (Macintosh; Intel Mac OS X 10_15_7) AppleWebKit/537.36 (KHTML, like Gecko) Chrome/114.0.0.0 Safari/537.36",Macintosh,Chrome,114.0.0.0,OS X,10_15_7,3920,fear,61,text_slider_response,,,,,,50
,html-slider-response,9,86666,0.0-5.0-4.0,10,1,2023-07-28 12:46:09,1d0798adfa59f9e8acce3717d57b77cf,,"Mozilla/5.0 (Macintosh; Intel Mac OS X 10_15_7) AppleWebKit/537.36 (KHTML, like Gecko) Chrome/114.0.0.0 Safari/537.36",Macintosh,Chrome,114.0.0.0,OS X,10_15_7,2886,anger,10,text_slider_response,,,,,,50
,audio-slider-response,10,103912,0.0-5.0-0.1,10,1,2023-07-28 12:46:09,1d0798adfa59f9e8acce3717d57b77cf,,"Mozilla/5.0 (Macintosh; Intel Mac OS X 10_15_7) AppleWebKit/537.36 (KHTML, like Gecko) Chrome/114.0.0.0 Safari/537.36",Macintosh,Chrome,114.0.0.0,OS X,10_15_7,17147,091.mp3,12,audio_slider,,,,,,50
,html-slider-response,11,106671,0.0-5.0-1.1,10,1,2023-07-28 12:46:09,1d0798adfa59f9e8acce3717d57b77cf,,"Mozilla/5.0 (Macintosh; Intel Mac OS X 10_15_7) AppleWebKit/537.36 (KHTML, like Gecko) Chrome/114.0.0.0 Safari/537.36",Macintosh,Chrome,114.0.0.0,OS X,10_15_7,2757,sad?,26,text_slider_response,,,,,,50
,html-slider-response,12,108851,0.0-5.0-2.1,10,1,2023-07-28 12:46:09,1d0798adfa59f9e8acce3717d57b77cf,,"Mozilla/5.0 (Macintosh; Intel Mac OS X 10_15_7) AppleWebKit/537.36 (KHTML, like Gecko) Chrome/114.0.0.0 Safari/537.36",Macintosh,Chrome,114.0.0.0,OS X,10_15_7,2179,tender,36,text_slider_response,,,,,,50
,html-slider-response,13,110715,0.0-5.0-3.1,10,1,2023-07-28 12:46:09,1d0798adfa59f9e8acce3717d57b77cf,,"Mozilla/5.0 (Macintosh; Intel Mac OS X 10_15_7) AppleWebKit/537.36 (KHTML, like Gecko) Chrome/114.0.0.0 Safari/537.36",Macintosh,Chrome,114.0.0.0,OS X,10_15_7,1863,fear,91,text_slider_response,,,,,,50
,html-slider-response,14,112861,0.0-5.0-4.1,10,1,2023-07-28 12:46:09,1d0798adfa59f9e8acce3717d57b77cf,,"Mozilla/5.0 (Macintosh; Intel Mac OS X 10_15_7) AppleWebKit/537.36 (KHTML, like Gecko) Chrome/114.0.0.0 Safari/537.36",Macintosh,Chrome,114.0.0.0,OS X,10_15_7,2144,anger,71,text_slider_response,,,,,,50
,audio-slider-response,15,131669,0.0-5.0-0.2,10,1,2023-07-28 12:46:09,1d0798adfa59f9e8acce3717d57b77cf,,"Mozilla/5.0 (Macintosh; Intel Mac OS X 10_15_7) AppleWebKit/537.36 (KHTML, like Gecko) Chrome/114.0.0.0 Safari/537.36",Macintosh,Chrome,114.0.0.0,OS X,10_15_7,18501,121.mp3,14,audio_slider,,,,,,50
,html-slider-response,16,134457,0.0-5.0-1.2,10,1,2023-07-28 12:46:09,1d0798adfa59f9e8acce3717d57b77cf,,"Mozilla/5.0 (Macintosh; Intel Mac OS X 10_15_7) AppleWebKit/537.36 (KHTML, like Gecko) Chrome/114.0.0.0 Safari/537.36",Macintosh,Chrome,114.0.0.0,OS X,10_15_7,2787,sad?,62,text_slider_response,,,,,,50
,html-slider-response,17,137915,0.0-5.0-2.2,10,1,2023-07-28 12:46:09,1d0798adfa59f9e8acce3717d57b77cf,,"Mozilla/5.0 (Macintosh; Intel Mac OS X 10_15_7) AppleWebKit/537.36 (KHTML, like Gecko) Chrome/114.0.0.0 Safari/537.36",Macintosh,Chrome,114.0.0.0,OS X,10_15_7,3457,tender,14,text_slider_response,,,,,,50
,html-slider-response,18,140374,0.0-5.0-3.2,10,1,2023-07-28 12:46:09,1d0798adfa59f9e8acce3717d57b77cf,,"Mozilla/5.0 (Macintosh; Intel Mac OS X 10_15_7) AppleWebKit/537.36 (KHTML, like Gecko) Chrome/114.0.0.0 Safari/537.36",Macintosh,Chrome,114.0.0.0,OS X,10_15_7,2458,fear,74,text_slider_response,,,,,,50
,html-slider-response,19,144341,0.0-5.0-4.2,10,1,2023-07-28 12:46:09,1d0798adfa59f9e8acce3717d57b77cf,,"Mozilla/5.0 (Macintosh; Intel Mac OS X 10_15_7) AppleWebKit/537.36 (KHTML, like Gecko) Chrome/114.0.0.0 Safari/537.36",Macintosh,Chrome,114.0.0.0,OS X,10_15_7,3966,anger,83,text_slider_response,,,,,,50
,audio-slider-response,20,160481,0.0-5.0-0.3,10,1,2023-07-28 12:46:09,1d0798adfa59f9e8acce3717d57b77cf,,"Mozilla/5.0 (Macintosh; Intel Mac OS X 10_15_7) AppleWebKit/537.36 (KHTML, like Gecko) Chrome/114.0.0.0 Safari/537.36",Macintosh,Chrome,114.0.0.0,OS X,10_15_7,15957,061.mp3,87,audio_slider,,,,,,50
,html-slider-response,21,163042,0.0-5.0-1.3,10,1,2023-07-28 12:46:09,1d0798adfa59f9e8acce3717d57b77cf,,"Mozilla/5.0 (Macintosh; Intel Mac OS X 10_15_7) AppleWebKit/537.36 (KHTML, like Gecko) Chrome/114.0.0.0 Safari/537.36",Macintosh,Chrome,114.0.0.0,OS X,10_15_7,2559,sad?,72,text_slider_response,,,,,,50
,html-slider-response,22,165529,0.0-5.0-2.3,10,1,2023-07-28 12:46:09,1d0798adfa59f9e8acce3717d57b77cf,,"Mozilla/5.0 (Macintosh; Intel Mac OS X 10_15_7) AppleWebKit/537.36 (KHTML, like Gecko) Chrome/114.0.0.0 Safari/537.36",Macintosh,Chrome,114.0.0.0,OS X,10_15_7,2487,tender,100,text_slider_response,,,,,,50
,html-slider-response,23,167586,0.0-5.0-3.3,10,1,2023-07-28 12:46:09,1d0798adfa59f9e8acce3717d57b77cf,,"Mozilla/5.0 (Macintosh; Intel Mac OS X 10_15_7) AppleWebKit/537.36 (KHTML, like Gecko) Chrome/114.0.0.0 Safari/537.36",Macintosh,Chrome,114.0.0.0,OS X,10_15_7,2055,fear,32,text_slider_response,,,,,,50
,html-slider-response,24,169771,0.0-5.0-4.3,10,1,2023-07-28 12:46:09,1d0798adfa59f9e8acce3717d57b77cf,,"Mozilla/5.0 (Macintosh; Intel Mac OS X 10_15_7) AppleWebKit/537.36 (KHTML, like Gecko) Chrome/114.0.0.0 Safari/537.36",Macintosh,Chrome,114.0.0.0,OS X,10_15_7,2184,anger,13,text_slider_response,,,,,,50
,audio-slider-response,25,187142,0.0-5.0-0.4,10,1,2023-07-28 12:46:09,1d0798adfa59f9e8acce3717d57b77cf,,"Mozilla/5.0 (Macintosh; Intel Mac OS X 10_15_7) AppleWebKit/537.36 (KHTML, like Gecko) Chrome/114.0.0.0 Safari/537.36",Macintosh,Chrome,114.0.0.0,OS X,10_15_7,17269,151.mp3,88,audio_slider,,,,,,50
,html-slider-response,26,189596,0.0-5.0-1.4,10,1,2023-07-28 12:46:09,1d0798adfa59f9e8acce3717d57b77cf,,"Mozilla/5.0 (Macintosh; Intel Mac OS X 10_15_7) AppleWebKit/537.36 (KHTML, like Gecko) Chrome/114.0.0.0 Safari/537.36",Macintosh,Chrome,114.0.0.0,OS X,10_15_7,2453,sad?,31,text_slider_response,,,,,,50
,html-slider-response,27,191871,0.0-5.0-2.4,10,1,2023-07-28 12:46:09,1d0798adfa59f9e8acce3717d57b77cf,,"Mozilla/5.0 (Macintosh; Intel Mac OS X 10_15_7) AppleWebKit/537.36 (KHTML, like Gecko) Chrome/114.0.0.0 Safari/537.36",Macintosh,Chrome,114.0.0.0,OS X,10_15_7,2273,tender,35,text_slider_response,,,,,,50
,html-slider-response,28,193961,0.0-5.0-3.4,10,1,2023-07-28 12:46:09,1d0798adfa59f9e8acce3717d57b77cf,,"Mozilla/5.0 (Macintosh; Intel Mac OS X 10_15_7) AppleWebKit/537.36 (KHTML, like Gecko) Chrome/114.0.0.0 Safari/537.36",Macintosh,Chrome,114.0.0.0,OS X,10_15_7,2089,fear,65,text_slider_response,,,,,,50
,html-slider-response,29,196680,0.0-5.0-4.4,10,1,2023-07-28 12:46:09,1d0798adfa59f9e8acce3717d57b77cf,,"Mozilla/5.0 (Macintosh; Intel Mac OS X 10_15_7) AppleWebKit/537.36 (KHTML, like Gecko) Chrome/114.0.0.0 Safari/537.36",Macintosh,Chrome,114.0.0.0,OS X,10_15_7,2717,anger,60,text_slider_response,,,,,,50
,audio-slider-response,30,214269,0.0-5.0-0.5,10,1,2023-07-28 12:46:09,1d0798adfa59f9e8acce3717d57b77cf,,"Mozilla/5.0 (Macintosh; Intel Mac OS X 10_15_7) AppleWebKit/537.36 (KHTML, like Gecko) Chrome/114.0.0.0 Safari/537.36",Macintosh,Chrome,114.0.0.0,OS X,10_15_7,17483,001.mp3,100,audio_slider,,,,,,50
,html-slider-response,31,216626,0.0-5.0-1.5,10,1,2023-07-28 12:46:09,1d0798adfa59f9e8acce3717d57b77cf,,"Mozilla/5.0 (Macintosh; Intel Mac OS X 10_15_7) AppleWebKit/537.36 (KHTML, like Gecko) Chrome/114.0.0.0 Safari/537.36",Macintosh,Chrome,114.0.0.0,OS X,10_15_7,2355,sad?,0,text_slider_response,,,,,,50
,html-slider-response,32,218644,0.0-5.0-2.5,10,1,2023-07-28 12:46:09,1d0798adfa59f9e8acce3717d57b77cf,,"Mozilla/5.0 (Macintosh; Intel Mac OS X 10_15_7) AppleWebKit/537.36 (KHTML, like Gecko) Chrome/114.0.0.0 Safari/537.36",Macintosh,Chrome,114.0.0.0,OS X,10_15_7,2017,tender,11,text_slider_response,,,,,,50
,html-slider-response,33,220642,0.0-5.0-3.5,10,1,2023-07-28 12:46:09,1d0798adfa59f9e8acce3717d57b77cf,,"Mozilla/5.0 (Macintosh; Intel Mac OS X 10_15_7) AppleWebKit/537.36 (KHTML, like Gecko) Chrome/114.0.0.0 Safari/537.36",Macintosh,Chrome,114.0.0.0,OS X,10_15_7,1997,fear,0,text_slider_response,,,,,,50
,html-slider-response,34,223429,0.0-5.0-4.5,10,1,2023-07-28 12:46:09,1d0798adfa59f9e8acce3717d57b77cf,,"Mozilla/5.0 (Macintosh; Intel Mac OS X 10_15_7) AppleWebKit/537.36 (KHTML, like Gecko) Chrome/114.0.0.0 Safari/537.36",Macintosh,Chrome,114.0.0.0,OS X,10_15_7,2785,anger,59,text_slider_response,,,,,,50
true,fullscreen,35,224440,0.0-6.0,10,1,2023-07-28 12:46:09,1d0798adfa59f9e8acce3717d57b77cf,,"Mozilla/5.0 (Macintosh; Intel Mac OS X 10_15_7) AppleWebKit/537.36 (KHTML, like Gecko) Chrome/114.0.0.0 Safari/537.36",Macintosh,Chrome,114.0.0.0,OS X,10_15_7,,,,,,,,,,
,html-keyboard-response,36,225305,0.0-7.0,10,1,2023-07-28 12:46:09,1d0798adfa59f9e8acce3717d57b77cf,,"Mozilla/5.0 (Macintosh; Intel Mac OS X 10_15_7) AppleWebKit/537.36 (KHTML, like Gecko) Chrome/114.0.0.0 Safari/537.36",Macintosh,Chrome,114.0.0.0,OS X,10_15_7,864,Thank you for your participation. You may now close the window.,meta,,,,,,,
true,fullscreen,0,2347,0.0-0.0,14,1,2023-07-28 12:48:12,1d0798adfa59f9e8acce3717d57b77cf,,"Mozilla/5.0 (Windows NT 10.0; Win64; x64) AppleWebKit/537.36 (KHTML, like Gecko) Chrome/115.0.0.0 Safari/537.36",WebKit,Chrome,115.0.0.0,Windows,10.0,,,,,,,,,,
,html-button-response,1,8639,0.0-1.0,14,1,2023-07-28 12:48:12,1d0798adfa59f9e8acce3717d57b77cf,,"Mozilla/5.0 (Windows NT 10.0; Win64; x64) AppleWebKit/537.36 (KHTML, like Gecko) Chrome/115.0.0.0 Safari/537.36",WebKit,Chrome,115.0.0.0,Windows,10.0,6286,Welcome to the experiment,0,,,,,,,
,html-button-response,2,13962,0.0-2.0,14,1,2023-07-28 12:48:12,1d0798adfa59f9e8acce3717d57b77cf,,"Mozilla/5.0 (Windows NT 10.0; Win64; x64) AppleWebKit/537.36 (KHTML, like Gecko) Chrome/115.0.0.0 Safari/537.36",WebKit,Chrome,115.0.0.0,Windows,10.0,5322,"This study aims to see if musical experience and training affects the induced emotions of nonvocal music.
                      During this study you will be asked to answer questions considering your musical background.
                      
                      Then you will be presented short music clips and asked to rate them according to
                      how strongly they make you feel certain emotions.",0,instruction,,,,,,
,survey-multi-choice,3,38107,0.0-3.0-0.0,14,1,2023-07-28 12:48:12,1d0798adfa59f9e8acce3717d57b77cf,,"Mozilla/5.0 (Windows NT 10.0; Win64; x64) AppleWebKit/537.36 (KHTML, like Gecko) Chrome/115.0.0.0 Safari/537.36",WebKit,Chrome,115.0.0.0,Windows,10.0,24139,,"{""gender"":""Female"",""msi1"":""2"",""msi2"":""2"",""msi3"":""0"",""msi4"":""0"",""msi5"":""1""}",multi_choice,"[0,1,2,3,4,5]",,,,,
true,preload,4,38113,0.0-4.0,14,1,2023-07-28 12:48:12,1d0798adfa59f9e8acce3717d57b77cf,,"Mozilla/5.0 (Windows NT 10.0; Win64; x64) AppleWebKit/537.36 (KHTML, like Gecko) Chrome/115.0.0.0 Safari/537.36",WebKit,Chrome,115.0.0.0,Windows,10.0,,,,,,false,[],[],[],
,audio-slider-response,5,57763,0.0-5.0-0.0,14,1,2023-07-28 12:48:12,1d0798adfa59f9e8acce3717d57b77cf,,"Mozilla/5.0 (Windows NT 10.0; Win64; x64) AppleWebKit/537.36 (KHTML, like Gecko) Chrome/115.0.0.0 Safari/537.36",WebKit,Chrome,115.0.0.0,Windows,10.0,18315,061.mp3,100,audio_slider,,,,,,50
,html-slider-response,6,72434,0.0-5.0-1.0,14,1,2023-07-28 12:48:12,1d0798adfa59f9e8acce3717d57b77cf,,"Mozilla/5.0 (Windows NT 10.0; Win64; x64) AppleWebKit/537.36 (KHTML, like Gecko) Chrome/115.0.0.0 Safari/537.36",WebKit,Chrome,115.0.0.0,Windows,10.0,14668,sad?,31,text_slider_response,,,,,,50
,html-slider-response,7,82951,0.0-5.0-2.0,14,1,2023-07-28 12:48:12,1d0798adfa59f9e8acce3717d57b77cf,,"Mozilla/5.0 (Windows NT 10.0; Win64; x64) AppleWebKit/537.36 (KHTML, like Gecko) Chrome/115.0.0.0 Safari/537.36",WebKit,Chrome,115.0.0.0,Windows,10.0,10513,tender,63,text_slider_response,,,,,,50
,html-slider-response,8,88137,0.0-5.0-3.0,14,1,2023-07-28 12:48:12,1d0798adfa59f9e8acce3717d57b77cf,,"Mozilla/5.0 (Windows NT 10.0; Win64; x64) AppleWebKit/537.36 (KHTML, like Gecko) Chrome/115.0.0.0 Safari/537.36",WebKit,Chrome,115.0.0.0,Windows,10.0,5183,fear,28,text_slider_response,,,,,,50
,html-slider-response,9,91586,0.0-5.0-4.0,14,1,2023-07-28 12:48:12,1d0798adfa59f9e8acce3717d57b77cf,,"Mozilla/5.0 (Windows NT 10.0; Win64; x64) AppleWebKit/537.36 (KHTML, like Gecko) Chrome/115.0.0.0 Safari/537.36",WebKit,Chrome,115.0.0.0,Windows,10.0,3447,anger,70,text_slider_response,,,,,,50
,audio-slider-response,10,111212,0.0-5.0-0.1,14,1,2023-07-28 12:48:12,1d0798adfa59f9e8acce3717d57b77cf,,"Mozilla/5.0 (Windows NT 10.0; Win64; x64) AppleWebKit/537.36 (KHTML, like Gecko) Chrome/115.0.0.0 Safari/537.36",WebKit,Chrome,115.0.0.0,Windows,10.0,18357,091.mp3,0,audio_slider,,,,,,50
,html-slider-response,11,115870,0.0-5.0-1.1,14,1,2023-07-28 12:48:12,1d0798adfa59f9e8acce3717d57b77cf,,"Mozilla/5.0 (Windows NT 10.0; Win64; x64) AppleWebKit/537.36 (KHTML, like Gecko) Chrome/115.0.0.0 Safari/537.36",WebKit,Chrome,115.0.0.0,Windows,10.0,4654,sad?,87,text_slider_response,,,,,,50
,html-slider-response,12,118405,0.0-5.0-2.1,14,1,2023-07-28 12:48:12,1d0798adfa59f9e8acce3717d57b77cf,,"Mozilla/5.0 (Windows NT 10.0; Win64; x64) AppleWebKit/537.36 (KHTML, like Gecko) Chrome/115.0.0.0 Safari/537.36",WebKit,Chrome,115.0.0.0,Windows,10.0,2533,tender,79,text_slider_response,,,,,,50
,html-slider-response,13,120662,0.0-5.0-3.1,14,1,2023-07-28 12:48:12,1d0798adfa59f9e8acce3717d57b77cf,,"Mozilla/5.0 (Windows NT 10.0; Win64; x64) AppleWebKit/537.36 (KHTML, like Gecko) Chrome/115.0.0.0 Safari/537.36",WebKit,Chrome,115.0.0.0,Windows,10.0,2255,fear,72,text_slider_response,,,,,,50
,html-slider-response,14,122918,0.0-5.0-4.1,14,1,2023-07-28 12:48:12,1d0798adfa59f9e8acce3717d57b77cf,,"Mozilla/5.0 (Windows NT 10.0; Win64; x64) AppleWebKit/537.36 (KHTML, like Gecko) Chrome/115.0.0.0 Safari/537.36",WebKit,Chrome,115.0.0.0,Windows,10.0,2254,anger,48,text_slider_response,,,,,,50
,audio-slider-response,15,142114,0.0-5.0-0.2,14,1,2023-07-28 12:48:12,1d0798adfa59f9e8acce3717d57b77cf,,"Mozilla/5.0 (Windows NT 10.0; Win64; x64) AppleWebKit/537.36 (KHTML, like Gecko) Chrome/115.0.0.0 Safari/537.36",WebKit,Chrome,115.0.0.0,Windows,10.0,18112,121.mp3,11,audio_slider,,,,,,50
,html-slider-response,16,147172,0.0-5.0-1.2,14,1,2023-07-28 12:48:12,1d0798adfa59f9e8acce3717d57b77cf,,"Mozilla/5.0 (Windows NT 10.0; Win64; x64) AppleWebKit/537.36 (KHTML, like Gecko) Chrome/115.0.0.0 Safari/537.36",WebKit,Chrome,115.0.0.0,Windows,10.0,5056,sad?,72,text_slider_response,,,,,,50
,html-slider-response,17,152609,0.0-5.0-2.2,14,1,2023-07-28 12:48:12,1d0798adfa59f9e8acce3717d57b77cf,,"Mozilla/5.0 (Windows NT 10.0; Win64; x64) AppleWebKit/537.36 (KHTML, like Gecko) Chrome/115.0.0.0 Safari/537.36",WebKit,Chrome,115.0.0.0,Windows,10.0,5434,tender,35,text_slider_response,,,,,,50
,html-slider-response,18,154916,0.0-5.0-3.2,14,1,2023-07-28 12:48:12,1d0798adfa59f9e8acce3717d57b77cf,,"Mozilla/5.0 (Windows NT 10.0; Win64; x64) AppleWebKit/537.36 (KHTML, like Gecko) Chrome/115.0.0.0 Safari/537.36",WebKit,Chrome,115.0.0.0,Windows,10.0,2304,fear,100,text_slider_response,,,,,,50
,html-slider-response,19,157818,0.0-5.0-4.2,14,1,2023-07-28 12:48:12,1d0798adfa59f9e8acce3717d57b77cf,,"Mozilla/5.0 (Windows NT 10.0; Win64; x64) AppleWebKit/537.36 (KHTML, like Gecko) Chrome/115.0.0.0 Safari/537.36",WebKit,Chrome,115.0.0.0,Windows,10.0,2900,anger,96,text_slider_response,,,,,,50
,audio-slider-response,20,180800,0.0-5.0-0.3,14,1,2023-07-28 12:48:12,1d0798adfa59f9e8acce3717d57b77cf,,"Mozilla/5.0 (Windows NT 10.0; Win64; x64) AppleWebKit/537.36 (KHTML, like Gecko) Chrome/115.0.0.0 Safari/537.36",WebKit,Chrome,115.0.0.0,Windows,10.0,22059,001.mp3,100,audio_slider,,,,,,50
,html-slider-response,21,182845,0.0-5.0-1.3,14,1,2023-07-28 12:48:12,1d0798adfa59f9e8acce3717d57b77cf,,"Mozilla/5.0 (Windows NT 10.0; Win64; x64) AppleWebKit/537.36 (KHTML, like Gecko) Chrome/115.0.0.0 Safari/537.36",WebKit,Chrome,115.0.0.0,Windows,10.0,2042,sad?,1,text_slider_response,,,,,,50
,html-slider-response,22,185029,0.0-5.0-2.3,14,1,2023-07-28 12:48:12,1d0798adfa59f9e8acce3717d57b77cf,,"Mozilla/5.0 (Windows NT 10.0; Win64; x64) AppleWebKit/537.36 (KHTML, like Gecko) Chrome/115.0.0.0 Safari/537.36",WebKit,Chrome,115.0.0.0,Windows,10.0,2182,tender,90,text_slider_response,,,,,,50
,html-slider-response,23,186988,0.0-5.0-3.3,14,1,2023-07-28 12:48:12,1d0798adfa59f9e8acce3717d57b77cf,,"Mozilla/5.0 (Windows NT 10.0; Win64; x64) AppleWebKit/537.36 (KHTML, like Gecko) Chrome/115.0.0.0 Safari/537.36",WebKit,Chrome,115.0.0.0,Windows,10.0,1957,fear,36,text_slider_response,,,,,,50
,html-slider-response,24,190297,0.0-5.0-4.3,14,1,2023-07-28 12:48:12,1d0798adfa59f9e8acce3717d57b77cf,,"Mozilla/5.0 (Windows NT 10.0; Win64; x64) AppleWebKit/537.36 (KHTML, like Gecko) Chrome/115.0.0.0 Safari/537.36",WebKit,Chrome,115.0.0.0,Windows,10.0,3306,anger,0,text_slider_response,,,,,,50
,audio-slider-response,25,214983,0.0-5.0-0.4,14,1,2023-07-28 12:48:12,1d0798adfa59f9e8acce3717d57b77cf,,"Mozilla/5.0 (Windows NT 10.0; Win64; x64) AppleWebKit/537.36 (KHTML, like Gecko) Chrome/115.0.0.0 Safari/537.36",WebKit,Chrome,115.0.0.0,Windows,10.0,23424,031.mp3,20,audio_slider,,,,,,50
,html-slider-response,26,217417,0.0-5.0-1.4,14,1,2023-07-28 12:48:12,1d0798adfa59f9e8acce3717d57b77cf,,"Mozilla/5.0 (Windows NT 10.0; Win64; x64) AppleWebKit/537.36 (KHTML, like Gecko) Chrome/115.0.0.0 Safari/537.36",WebKit,Chrome,115.0.0.0,Windows,10.0,2432,sad?,91,text_slider_response,,,,,,50
,html-slider-response,27,219278,0.0-5.0-2.4,14,1,2023-07-28 12:48:12,1d0798adfa59f9e8acce3717d57b77cf,,"Mozilla/5.0 (Windows NT 10.0; Win64; x64) AppleWebKit/537.36 (KHTML, like Gecko) Chrome/115.0.0.0 Safari/537.36",WebKit,Chrome,115.0.0.0,Windows,10.0,1857,tender,76,text_slider_response,,,,,,50
,html-slider-response,28,221976,0.0-5.0-3.4,14,1,2023-07-28 12:48:12,1d0798adfa59f9e8acce3717d57b77cf,,"Mozilla/5.0 (Windows NT 10.0; Win64; x64) AppleWebKit/537.36 (KHTML, like Gecko) Chrome/115.0.0.0 Safari/537.36",WebKit,Chrome,115.0.0.0,Windows,10.0,2696,fear,56,text_slider_response,,,,,,50
,html-slider-response,29,224516,0.0-5.0-4.4,14,1,2023-07-28 12:48:12,1d0798adfa59f9e8acce3717d57b77cf,,"Mozilla/5.0 (Windows NT 10.0; Win64; x64) AppleWebKit/537.36 (KHTML, like Gecko) Chrome/115.0.0.0 Safari/537.36",WebKit,Chrome,115.0.0.0,Windows,10.0,2537,anger,32,text_slider_response,,,,,,50
,audio-slider-response,30,246606,0.0-5.0-0.5,14,1,2023-07-28 12:48:12,1d0798adfa59f9e8acce3717d57b77cf,,"Mozilla/5.0 (Windows NT 10.0; Win64; x64) AppleWebKit/537.36 (KHTML, like Gecko) Chrome/115.0.0.0 Safari/537.36",WebKit,Chrome,115.0.0.0,Windows,10.0,21259,151.mp3,70,audio_slider,,,,,,50
,html-slider-response,31,248998,0.0-5.0-1.5,14,1,2023-07-28 12:48:12,1d0798adfa59f9e8acce3717d57b77cf,,"Mozilla/5.0 (Windows NT 10.0; Win64; x64) AppleWebKit/537.36 (KHTML, like Gecko) Chrome/115.0.0.0 Safari/537.36",WebKit,Chrome,115.0.0.0,Windows,10.0,2390,sad?,22,text_slider_response,,,,,,50
,html-slider-response,32,252164,0.0-5.0-2.5,14,1,2023-07-28 12:48:12,1d0798adfa59f9e8acce3717d57b77cf,,"Mozilla/5.0 (Windows NT 10.0; Win64; x64) AppleWebKit/537.36 (KHTML, like Gecko) Chrome/115.0.0.0 Safari/537.36",WebKit,Chrome,115.0.0.0,Windows,10.0,3163,tender,14,text_slider_response,,,,,,50
,html-slider-response,33,254178,0.0-5.0-3.5,14,1,2023-07-28 12:48:12,1d0798adfa59f9e8acce3717d57b77cf,,"Mozilla/5.0 (Windows NT 10.0; Win64; x64) AppleWebKit/537.36 (KHTML, like Gecko) Chrome/115.0.0.0 Safari/537.36",WebKit,Chrome,115.0.0.0,Windows,10.0,2010,fear,10,text_slider_response,,,,,,50
true,fullscreen,0,2271,0.0-0.0,11,1,2023-07-28 12:46:22,1d0798adfa59f9e8acce3717d57b77cf,,"Mozilla/5.0 (Macintosh; Intel Mac OS X 10_15_7) AppleWebKit/537.36 (KHTML, like Gecko) Chrome/113.0.0.0 Safari/537.36",Macintosh,Chrome,113.0.0.0,OS X,10_15_7,,,,,,,,,,
,html-button-response,1,3187,0.0-1.0,11,1,2023-07-28 12:46:22,1d0798adfa59f9e8acce3717d57b77cf,,"Mozilla/5.0 (Macintosh; Intel Mac OS X 10_15_7) AppleWebKit/537.36 (KHTML, like Gecko) Chrome/113.0.0.0 Safari/537.36",Macintosh,Chrome,113.0.0.0,OS X,10_15_7,913,Welcome to the experiment,0,,,,,,,
,html-button-response,2,6579,0.0-2.0,11,1,2023-07-28 12:46:22,1d0798adfa59f9e8acce3717d57b77cf,,"Mozilla/5.0 (Macintosh; Intel Mac OS X 10_15_7) AppleWebKit/537.36 (KHTML, like Gecko) Chrome/113.0.0.0 Safari/537.36",Macintosh,Chrome,113.0.0.0,OS X,10_15_7,3391,"This study aims to see if musical experience and training affects the induced emotions of nonvocal music.
                      During this study you will be asked to answer questions considering your musical background.
                      
                      Then you will be presented short music clips and asked to rate them according to
                      how strongly they make you feel certain emotions.",0,instruction,,,,,,
,survey-multi-choice,3,39478,0.0-3.0-0.0,11,1,2023-07-28 12:46:22,1d0798adfa59f9e8acce3717d57b77cf,,"Mozilla/5.0 (Macintosh; Intel Mac OS X 10_15_7) AppleWebKit/537.36 (KHTML, like Gecko) Chrome/113.0.0.0 Safari/537.36",Macintosh,Chrome,113.0.0.0,OS X,10_15_7,32897,,"{""gender"":""Female"",""msi1"":""10 or more"",""msi2"":""5 or moremore"",""msi3"":""7 or more"",""msi4"":""10 or more"",""msi5"":""4""}",multi_choice,"[0,1,2,3,4,5]",,,,,
true,preload,4,39484,0.0-4.0,11,1,2023-07-28 12:46:22,1d0798adfa59f9e8acce3717d57b77cf,,"Mozilla/5.0 (Macintosh; Intel Mac OS X 10_15_7) AppleWebKit/537.36 (KHTML, like Gecko) Chrome/113.0.0.0 Safari/537.36",Macintosh,Chrome,113.0.0.0,OS X,10_15_7,,,,,,false,[],[],[],
,audio-slider-response,5,58929,0.0-5.0-0.0,11,1,2023-07-28 12:46:22,1d0798adfa59f9e8acce3717d57b77cf,,"Mozilla/5.0 (Macintosh; Intel Mac OS X 10_15_7) AppleWebKit/537.36 (KHTML, like Gecko) Chrome/113.0.0.0 Safari/537.36",Macintosh,Chrome,113.0.0.0,OS X,10_15_7,19168,091.mp3,0,audio_slider,,,,,,50
,html-slider-response,6,65904,0.0-5.0-1.0,11,1,2023-07-28 12:46:22,1d0798adfa59f9e8acce3717d57b77cf,,"Mozilla/5.0 (Macintosh; Intel Mac OS X 10_15_7) AppleWebKit/537.36 (KHTML, like Gecko) Chrome/113.0.0.0 Safari/537.36",Macintosh,Chrome,113.0.0.0,OS X,10_15_7,6974,sad?,0,text_slider_response,,,,,,50
,html-slider-response,7,68118,0.0-5.0-2.0,11,1,2023-07-28 12:46:22,1d0798adfa59f9e8acce3717d57b77cf,,"Mozilla/5.0 (Macintosh; Intel Mac OS X 10_15_7) AppleWebKit/537.36 (KHTML, like Gecko) Chrome/113.0.0.0 Safari/537.36",Macintosh,Chrome,113.0.0.0,OS X,10_15_7,2213,tender,0,text_slider_response,,,,,,50
,html-slider-response,8,70957,0.0-5.0-3.0,11,1,2023-07-28 12:46:22,1d0798adfa59f9e8acce3717d57b77cf,,"Mozilla/5.0 (Macintosh; Intel Mac OS X 10_15_7) AppleWebKit/537.36 (KHTML, like Gecko) Chrome/113.0.0.0 Safari/537.36",Macintosh,Chrome,113.0.0.0,OS X,10_15_7,2838,fear,100,text_slider_response,,,,,,50
,html-slider-response,9,74007,0.0-5.0-4.0,11,1,2023-07-28 12:46:22,1d0798adfa59f9e8acce3717d57b77cf,,"Mozilla/5.0 (Macintosh; Intel Mac OS X 10_15_7) AppleWebKit/537.36 (KHTML, like Gecko) Chrome/113.0.0.0 Safari/537.36",Macintosh,Chrome,113.0.0.0,OS X,10_15_7,3048,anger,100,text_slider_response,,,,,,50
,audio-slider-response,10,96400,0.0-5.0-0.1,11,1,2023-07-28 12:46:22,1d0798adfa59f9e8acce3717d57b77cf,,"Mozilla/5.0 (Macintosh; Intel Mac OS X 10_15_7) AppleWebKit/537.36 (KHTML, like Gecko) Chrome/113.0.0.0 Safari/537.36",Macintosh,Chrome,113.0.0.0,OS X,10_15_7,22047,031.mp3,70,audio_slider,,,,,,50
,html-slider-response,11,100194,0.0-5.0-1.1,11,1,2023-07-28 12:46:22,1d0798adfa59f9e8acce3717d57b77cf,,"Mozilla/5.0 (Macintosh; Intel Mac OS X 10_15_7) AppleWebKit/537.36 (KHTML, like Gecko) Chrome/113.0.0.0 Safari/537.36",Macintosh,Chrome,113.0.0.0,OS X,10_15_7,3792,sad?,79,text_slider_response,,,,,,50
,html-slider-response,12,102397,0.0-5.0-2.1,11,1,2023-07-28 12:46:22,1d0798adfa59f9e8acce3717d57b77cf,,"Mozilla/5.0 (Macintosh; Intel Mac OS X 10_15_7) AppleWebKit/537.36 (KHTML, like Gecko) Chrome/113.0.0.0 Safari/537.36",Macintosh,Chrome,113.0.0.0,OS X,10_15_7,2202,tender,100,text_slider_response,,,,,,50
,html-slider-response,13,104587,0.0-5.0-3.1,11,1,2023-07-28 12:46:22,1d0798adfa59f9e8acce3717d57b77cf,,"Mozilla/5.0 (Macintosh; Intel Mac OS X 10_15_7) AppleWebKit/537.36 (KHTML, like Gecko) Chrome/113.0.0.0 Safari/537.36",Macintosh,Chrome,113.0.0.0,OS X,10_15_7,2189,fear,0,text_slider_response,,,,,,50
,html-slider-response,14,106570,0.0-5.0-4.1,11,1,2023-07-28 12:46:22,1d0798adfa59f9e8acce3717d57b77cf,,"Mozilla/5.0 (Macintosh; Intel Mac OS X 10_15_7) AppleWebKit/537.36 (KHTML, like Gecko) Chrome/113.0.0.0 Safari/537.36",Macintosh,Chrome,113.0.0.0,OS X,10_15_7,1980,anger,0,text_slider_response,,,,,,50
,audio-slider-response,15,129669,0.0-5.0-0.2,11,1,2023-07-28 12:46:22,1d0798adfa59f9e8acce3717d57b77cf,,"Mozilla/5.0 (Macintosh; Intel Mac OS X 10_15_7) AppleWebKit/537.36 (KHTML, like Gecko) Chrome/113.0.0.0 Safari/537.36",Macintosh,Chrome,113.0.0.0,OS X,10_15_7,22959,151.mp3,57,audio_slider,,,,,,50
,html-slider-response,16,135693,0.0-5.0-1.2,11,1,2023-07-28 12:46:22,1d0798adfa59f9e8acce3717d57b77cf,,"Mozilla/5.0 (Macintosh; Intel Mac OS X 10_15_7) AppleWebKit/537.36 (KHTML, like Gecko) Chrome/113.0.0.0 Safari/537.36",Macintosh,Chrome,113.0.0.0,OS X,10_15_7,6022,sad?,42,text_slider_response,,,,,,50
,html-slider-response,17,138834,0.0-5.0-2.2,11,1,2023-07-28 12:46:22,1d0798adfa59f9e8acce3717d57b77cf,,"Mozilla/5.0 (Macintosh; Intel Mac OS X 10_15_7) AppleWebKit/537.36 (KHTML, like Gecko) Chrome/113.0.0.0 Safari/537.36",Macintosh,Chrome,113.0.0.0,OS X,10_15_7,3140,tender,31,text_slider_response,,,,,,50
,html-slider-response,18,143919,0.0-5.0-3.2,11,1,2023-07-28 12:46:22,1d0798adfa59f9e8acce3717d57b77cf,,"Mozilla/5.0 (Macintosh; Intel Mac OS X 10_15_7) AppleWebKit/537.36 (KHTML, like Gecko) Chrome/113.0.0.0 Safari/537.36",Macintosh,Chrome,113.0.0.0,OS X,10_15_7,5084,fear,8,text_slider_response,,,,,,50
,html-slider-response,19,147970,0.0-5.0-4.2,11,1,2023-07-28 12:46:22,1d0798adfa59f9e8acce3717d57b77cf,,"Mozilla/5.0 (Macintosh; Intel Mac OS X 10_15_7) AppleWebKit/537.36 (KHTML, like Gecko) Chrome/113.0.0.0 Safari/537.36",Macintosh,Chrome,113.0.0.0,OS X,10_15_7,4049,anger,74,text_slider_response,,,,,,50
,audio-slider-response,20,166270,0.0-5.0-0.3,11,1,2023-07-28 12:46:22,1d0798adfa59f9e8acce3717d57b77cf,,"Mozilla/5.0 (Macintosh; Intel Mac OS X 10_15_7) AppleWebKit/537.36 (KHTML, like Gecko) Chrome/113.0.0.0 Safari/537.36",Macintosh,Chrome,113.0.0.0,OS X,10_15_7,18007,001.mp3,40,audio_slider,,,,,,50
,html-slider-response,21,170104,0.0-5.0-1.3,11,1,2023-07-28 12:46:22,1d0798adfa59f9e8acce3717d57b77cf,,"Mozilla/5.0 (Macintosh; Intel Mac OS X 10_15_7) AppleWebKit/537.36 (KHTML, like Gecko) Chrome/113.0.0.0 Safari/537.36",Macintosh,Chrome,113.0.0.0,OS X,10_15_7,3832,sad?,70,text_slider_response,,,,,,50
,html-slider-response,22,175379,0.0-5.0-2.3,11,1,2023-07-28 12:46:22,1d0798adfa59f9e8acce3717d57b77cf,,"Mozilla/5.0 (Macintosh; Intel Mac OS X 10_15_7) AppleWebKit/537.36 (KHTML, like Gecko) Chrome/113.0.0.0 Safari/537.36",Macintosh,Chrome,113.0.0.0,OS X,10_15_7,5269,tender,0,text_slider_response,,,,,,50
,html-slider-response,23,178696,0.0-5.0-3.3,11,1,2023-07-28 12:46:22,1d0798adfa59f9e8acce3717d57b77cf,,"Mozilla/5.0 (Macintosh; Intel Mac OS X 10_15_7) AppleWebKit/537.36 (KHTML, like Gecko) Chrome/113.0.0.0 Safari/537.36",Macintosh,Chrome,113.0.0.0,OS X,10_15_7,3313,fear,26,text_slider_response,,,,,,50
,html-slider-response,24,181789,0.0-5.0-4.3,11,1,2023-07-28 12:46:22,1d0798adfa59f9e8acce3717d57b77cf,,"Mozilla/5.0 (Macintosh; Intel Mac OS X 10_15_7) AppleWebKit/537.36 (KHTML, like Gecko) Chrome/113.0.0.0 Safari/537.36",Macintosh,Chrome,113.0.0.0,OS X,10_15_7,3089,anger,26,text_slider_response,,,,,,50
,audio-slider-response,25,201191,0.0-5.0-0.4,11,1,2023-07-28 12:46:22,1d0798adfa59f9e8acce3717d57b77cf,,"Mozilla/5.0 (Macintosh; Intel Mac OS X 10_15_7) AppleWebKit/537.36 (KHTML, like Gecko) Chrome/113.0.0.0 Safari/537.36",Macintosh,Chrome,113.0.0.0,OS X,10_15_7,19069,061.mp3,56,audio_slider,,,,,,50
,html-slider-response,26,204449,0.0-5.0-1.4,11,1,2023-07-28 12:46:22,1d0798adfa59f9e8acce3717d57b77cf,,"Mozilla/5.0 (Macintosh; Intel Mac OS X 10_15_7) AppleWebKit/537.36 (KHTML, like Gecko) Chrome/113.0.0.0 Safari/537.36",Macintosh,Chrome,113.0.0.0,OS X,10_15_7,3256,sad?,70,text_slider_response,,,,,,50
,html-slider-response,27,207058,0.0-5.0-2.4,11,1,2023-07-28 12:46:22,1d0798adfa59f9e8acce3717d57b77cf,,"Mozilla/5.0 (Macintosh; Intel Mac OS X 10_15_7) AppleWebKit/537.36 (KHTML, like Gecko) Chrome/113.0.0.0 Safari/537.36",Macintosh,Chrome,113.0.0.0,OS X,10_15_7,2608,tender,84,text_slider_response,,,,,,50
,html-slider-response,28,210419,0.0-5.0-3.4,11,1,2023-07-28 12:46:22,1d0798adfa59f9e8acce3717d57b77cf,,"Mozilla/5.0 (Macintosh; Intel Mac OS X 10_15_7) AppleWebKit/537.36 (KHTML, like Gecko) Chrome/113.0.0.0 Safari/537.36",Macintosh,Chrome,113.0.0.0,OS X,10_15_7,3359,fear,0,text_slider_response,,,,,,50
,html-slider-response,29,212503,0.0-5.0-4.4,11,1,2023-07-28 12:46:22,1d0798adfa59f9e8acce3717d57b77cf,,"Mozilla/5.0 (Macintosh; Intel Mac OS X 10_15_7) AppleWebKit/537.36 (KHTML, like Gecko) Chrome/113.0.0.0 Safari/537.36",Macintosh,Chrome,113.0.0.0,OS X,10_15_7,2083,anger,0,text_slider_response,,,,,,50
,audio-slider-response,30,230475,0.0-5.0-0.5,11,1,2023-07-28 12:46:22,1d0798adfa59f9e8acce3717d57b77cf,,"Mozilla/5.0 (Macintosh; Intel Mac OS X 10_15_7) AppleWebKit/537.36 (KHTML, like Gecko) Chrome/113.0.0.0 Safari/537.36",Macintosh,Chrome,113.0.0.0,OS X,10_15_7,17636,121.mp3,100,audio_slider,,,,,,50
,html-slider-response,31,233326,0.0-5.0-1.5,11,1,2023-07-28 12:46:22,1d0798adfa59f9e8acce3717d57b77cf,,"Mozilla/5.0 (Macintosh; Intel Mac OS X 10_15_7) AppleWebKit/537.36 (KHTML, like Gecko) Chrome/113.0.0.0 Safari/537.36",Macintosh,Chrome,113.0.0.0,OS X,10_15_7,2849,sad?,0,text_slider_response,,,,,,50
,html-slider-response,32,236655,0.0-5.0-2.5,11,1,2023-07-28 12:46:22,1d0798adfa59f9e8acce3717d57b77cf,,"Mozilla/5.0 (Macintosh; Intel Mac OS X 10_15_7) AppleWebKit/537.36 (KHTML, like Gecko) Chrome/113.0.0.0 Safari/537.36",Macintosh,Chrome,113.0.0.0,OS X,10_15_7,3328,tender,19,text_slider_response,,,,,,50
,html-slider-response,33,240990,0.0-5.0-3.5,11,1,2023-07-28 12:46:22,1d0798adfa59f9e8acce3717d57b77cf,,"Mozilla/5.0 (Macintosh; Intel Mac OS X 10_15_7) AppleWebKit/537.36 (KHTML, like Gecko) Chrome/113.0.0.0 Safari/537.36",Macintosh,Chrome,113.0.0.0,OS X,10_15_7,4334,fear,63,text_slider_response,,,,,,50
,html-slider-response,34,243257,0.0-5.0-4.5,11,1,2023-07-28 12:46:22,1d0798adfa59f9e8acce3717d57b77cf,,"Mozilla/5.0 (Macintosh; Intel Mac OS X 10_15_7) AppleWebKit/537.36 (KHTML, like Gecko) Chrome/113.0.0.0 Safari/537.36",Macintosh,Chrome,113.0.0.0,OS X,10_15_7,2266,anger,24,text_slider_response,,,,,,50
true,fullscreen,35,244266,0.0-6.0,11,1,2023-07-28 12:46:22,1d0798adfa59f9e8acce3717d57b77cf,,"Mozilla/5.0 (Macintosh; Intel Mac OS X 10_15_7) AppleWebKit/537.36 (KHTML, like Gecko) Chrome/113.0.0.0 Safari/537.36",Macintosh,Chrome,113.0.0.0,OS X,10_15_7,,,,,,,,,,
true,fullscreen,0,2081,0.0-0.0,13,1,2023-07-28 12:48:08,1d0798adfa59f9e8acce3717d57b77cf,,"Mozilla/5.0 (Windows NT 10.0; Win64; x64) AppleWebKit/537.36 (KHTML, like Gecko) Chrome/115.0.0.0 Safari/537.36",WebKit,Chrome,115.0.0.0,Windows,10.0,,,,,,,,,,
,html-button-response,1,2820,0.0-1.0,13,1,2023-07-28 12:48:08,1d0798adfa59f9e8acce3717d57b77cf,,"Mozilla/5.0 (Windows NT 10.0; Win64; x64) AppleWebKit/537.36 (KHTML, like Gecko) Chrome/115.0.0.0 Safari/537.36",WebKit,Chrome,115.0.0.0,Windows,10.0,736,Welcome to the experiment,0,,,,,,,
,html-button-response,2,11466,0.0-2.0,13,1,2023-07-28 12:48:08,1d0798adfa59f9e8acce3717d57b77cf,,"Mozilla/5.0 (Windows NT 10.0; Win64; x64) AppleWebKit/537.36 (KHTML, like Gecko) Chrome/115.0.0.0 Safari/537.36",WebKit,Chrome,115.0.0.0,Windows,10.0,8645,"This study aims to see if musical experience and training affects the induced emotions of nonvocal music.
                      During this study you will be asked to answer questions considering your musical background.
                      
                      Then you will be presented short music clips and asked to rate them according to
                      how strongly they make you feel certain emotions.",0,instruction,,,,,,
,survey-multi-choice,3,34693,0.0-3.0-0.0,13,1,2023-07-28 12:48:08,1d0798adfa59f9e8acce3717d57b77cf,,"Mozilla/5.0 (Windows NT 10.0; Win64; x64) AppleWebKit/537.36 (KHTML, like Gecko) Chrome/115.0.0.0 Safari/537.36",WebKit,Chrome,115.0.0.0,Windows,10.0,23225,,"{""gender"":""Female"",""msi1"":""2"",""msi2"":""1"",""msi3"":""0.5"",""msi4"":""1"",""msi5"":""2""}",multi_choice,"[0,1,2,3,4,5]",,,,,
true,preload,4,34695,0.0-4.0,13,1,2023-07-28 12:48:08,1d0798adfa59f9e8acce3717d57b77cf,,"Mozilla/5.0 (Windows NT 10.0; Win64; x64) AppleWebKit/537.36 (KHTML, like Gecko) Chrome/115.0.0.0 Safari/537.36",WebKit,Chrome,115.0.0.0,Windows,10.0,,,,,,false,[],[],[],
,audio-slider-response,5,53132,0.0-5.0-0.0,13,1,2023-07-28 12:48:08,1d0798adfa59f9e8acce3717d57b77cf,,"Mozilla/5.0 (Windows NT 10.0; Win64; x64) AppleWebKit/537.36 (KHTML, like Gecko) Chrome/115.0.0.0 Safari/537.36",WebKit,Chrome,115.0.0.0,Windows,10.0,18200,061.mp3,34,audio_slider,,,,,,50
,html-slider-response,6,56094,0.0-5.0-1.0,13,1,2023-07-28 12:48:08,1d0798adfa59f9e8acce3717d57b77cf,,"Mozilla/5.0 (Windows NT 10.0; Win64; x64) AppleWebKit/537.36 (KHTML, like Gecko) Chrome/115.0.0.0 Safari/537.36",WebKit,Chrome,115.0.0.0,Windows,10.0,2960,sad?,91,text_slider_response,,,,,,50
,html-slider-response,7,60547,0.0-5.0-2.0,13,1,2023-07-28 12:48:08,1d0798adfa59f9e8acce3717d57b77cf,,"Mozilla/5.0 (Windows NT 10.0; Win64; x64) AppleWebKit/537.36 (KHTML, like Gecko) Chrome/115.0.0.0 Safari/537.36",WebKit,Chrome,115.0.0.0,Windows,10.0,4453,tender,90,text_slider_response,,,,,,50
,html-slider-response,8,63589,0.0-5.0-3.0,13,1,2023-07-28 12:48:08,1d0798adfa59f9e8acce3717d57b77cf,,"Mozilla/5.0 (Windows NT 10.0; Win64; x64) AppleWebKit/537.36 (KHTML, like Gecko) Chrome/115.0.0.0 Safari/537.36",WebKit,Chrome,115.0.0.0,Windows,10.0,3041,fear,0,text_slider_response,,,,,,50
,html-slider-response,9,73348,0.0-5.0-4.0,13,1,2023-07-28 12:48:08,1d0798adfa59f9e8acce3717d57b77cf,,"Mozilla/5.0 (Windows NT 10.0; Win64; x64) AppleWebKit/537.36 (KHTML, like Gecko) Chrome/115.0.0.0 Safari/537.36",WebKit,Chrome,115.0.0.0,Windows,10.0,9758,anger,0,text_slider_response,,,,,,50
,audio-slider-response,10,101416,0.0-5.0-0.1,13,1,2023-07-28 12:48:08,1d0798adfa59f9e8acce3717d57b77cf,,"Mozilla/5.0 (Windows NT 10.0; Win64; x64) AppleWebKit/537.36 (KHTML, like Gecko) Chrome/115.0.0.0 Safari/537.36",WebKit,Chrome,115.0.0.0,Windows,10.0,27821,151.mp3,67,audio_slider,,,,,,50
,html-slider-response,11,103313,0.0-5.0-1.1,13,1,2023-07-28 12:48:08,1d0798adfa59f9e8acce3717d57b77cf,,"Mozilla/5.0 (Windows NT 10.0; Win64; x64) AppleWebKit/537.36 (KHTML, like Gecko) Chrome/115.0.0.0 Safari/537.36",WebKit,Chrome,115.0.0.0,Windows,10.0,1896,sad?,0,text_slider_response,,,,,,50
,html-slider-response,12,105217,0.0-5.0-2.1,13,1,2023-07-28 12:48:08,1d0798adfa59f9e8acce3717d57b77cf,,"Mozilla/5.0 (Windows NT 10.0; Win64; x64) AppleWebKit/537.36 (KHTML, like Gecko) Chrome/115.0.0.0 Safari/537.36",WebKit,Chrome,115.0.0.0,Windows,10.0,1903,tender,0,text_slider_response,,,,,,50
,html-slider-response,13,107554,0.0-5.0-3.1,13,1,2023-07-28 12:48:08,1d0798adfa59f9e8acce3717d57b77cf,,"Mozilla/5.0 (Windows NT 10.0; Win64; x64) AppleWebKit/537.36 (KHTML, like Gecko) Chrome/115.0.0.0 Safari/537.36",WebKit,Chrome,115.0.0.0,Windows,10.0,2336,fear,68,text_slider_response,,,,,,50
,html-slider-response,14,110545,0.0-5.0-4.1,13,1,2023-07-28 12:48:08,1d0798adfa59f9e8acce3717d57b77cf,,"Mozilla/5.0 (Windows NT 10.0; Win64; x64) AppleWebKit/537.36 (KHTML, like Gecko) Chrome/115.0.0.0 Safari/537.36",WebKit,Chrome,115.0.0.0,Windows,10.0,2990,anger,50,text_slider_response,,,,,,50
,audio-slider-response,15,133467,0.0-5.0-0.2,13,1,2023-07-28 12:48:08,1d0798adfa59f9e8acce3717d57b77cf,,"Mozilla/5.0 (Windows NT 10.0; Win64; x64) AppleWebKit/537.36 (KHTML, like Gecko) Chrome/115.0.0.0 Safari/537.36",WebKit,Chrome,115.0.0.0,Windows,10.0,22651,031.mp3,25,audio_slider,,,,,,50
,html-slider-response,16,136669,0.0-5.0-1.2,13,1,2023-07-28 12:48:08,1d0798adfa59f9e8acce3717d57b77cf,,"Mozilla/5.0 (Windows NT 10.0; Win64; x64) AppleWebKit/537.36 (KHTML, like Gecko) Chrome/115.0.0.0 Safari/537.36",WebKit,Chrome,115.0.0.0,Windows,10.0,3202,sad?,100,text_slider_response,,,,,,50
,html-slider-response,17,138652,0.0-5.0-2.2,13,1,2023-07-28 12:48:08,1d0798adfa59f9e8acce3717d57b77cf,,"Mozilla/5.0 (Windows NT 10.0; Win64; x64) AppleWebKit/537.36 (KHTML, like Gecko) Chrome/115.0.0.0 Safari/537.36",WebKit,Chrome,115.0.0.0,Windows,10.0,1982,tender,100,text_slider_response,,,,,,50
,html-slider-response,18,140953,0.0-5.0-3.2,13,1,2023-07-28 12:48:08,1d0798adfa59f9e8acce3717d57b77cf,,"Mozilla/5.0 (Windows NT 10.0; Win64; x64) AppleWebKit/537.36 (KHTML, like Gecko) Chrome/115.0.0.0 Safari/537.36",WebKit,Chrome,115.0.0.0,Windows,10.0,2300,fear,60,text_slider_response,,,,,,50
,html-slider-response,19,142864,0.0-5.0-4.2,13,1,2023-07-28 12:48:08,1d0798adfa59f9e8acce3717d57b77cf,,"Mozilla/5.0 (Windows NT 10.0; Win64; x64) AppleWebKit/537.36 (KHTML, like Gecko) Chrome/115.0.0.0 Safari/537.36",WebKit,Chrome,115.0.0.0,Windows,10.0,1910,anger,1,text_slider_response,,,,,,50
,audio-slider-response,20,162438,0.0-5.0-0.3,13,1,2023-07-28 12:48:08,1d0798adfa59f9e8acce3717d57b77cf,,"Mozilla/5.0 (Windows NT 10.0; Win64; x64) AppleWebKit/537.36 (KHTML, like Gecko) Chrome/115.0.0.0 Safari/537.36",WebKit,Chrome,115.0.0.0,Windows,10.0,19349,121.mp3,0,audio_slider,,,,,,50
,html-slider-response,21,164882,0.0-5.0-1.3,13,1,2023-07-28 12:48:08,1d0798adfa59f9e8acce3717d57b77cf,,"Mozilla/5.0 (Windows NT 10.0; Win64; x64) AppleWebKit/537.36 (KHTML, like Gecko) Chrome/115.0.0.0 Safari/537.36",WebKit,Chrome,115.0.0.0,Windows,10.0,2443,sad?,0,text_slider_response,,,,,,50
,html-slider-response,22,175729,0.0-5.0-2.3,13,1,2023-07-28 12:48:08,1d0798adfa59f9e8acce3717d57b77cf,,"Mozilla/5.0 (Windows NT 10.0; Win64; x64) AppleWebKit/537.36 (KHTML, like Gecko) Chrome/115.0.0.0 Safari/537.36",WebKit,Chrome,115.0.0.0,Windows,10.0,10846,tender,1,text_slider_response,,,,,,50
,html-slider-response,23,177781,0.0-5.0-3.3,13,1,2023-07-28 12:48:08,1d0798adfa59f9e8acce3717d57b77cf,,"Mozilla/5.0 (Windows NT 10.0; Win64; x64) AppleWebKit/537.36 (KHTML, like Gecko) Chrome/115.0.0.0 Safari/537.36",WebKit,Chrome,115.0.0.0,Windows,10.0,2052,fear,100,text_slider_response,,,,,,50
,html-slider-response,24,179834,0.0-5.0-4.3,13,1,2023-07-28 12:48:08,1d0798adfa59f9e8acce3717d57b77cf,,"Mozilla/5.0 (Windows NT 10.0; Win64; x64) AppleWebKit/537.36 (KHTML, like Gecko) Chrome/115.0.0.0 Safari/537.36",WebKit,Chrome,115.0.0.0,Windows,10.0,2052,anger,100,text_slider_response,,,,,,50
,audio-slider-response,25,207493,0.0-5.0-0.4,13,1,2023-07-28 12:48:08,1d0798adfa59f9e8acce3717d57b77cf,,"Mozilla/5.0 (Windows NT 10.0; Win64; x64) AppleWebKit/537.36 (KHTML, like Gecko) Chrome/115.0.0.0 Safari/537.36",WebKit,Chrome,115.0.0.0,Windows,10.0,27381,091.mp3,0,audio_slider,,,,,,50
,html-slider-response,26,211740,0.0-5.0-1.4,13,1,2023-07-28 12:48:08,1d0798adfa59f9e8acce3717d57b77cf,,"Mozilla/5.0 (Windows NT 10.0; Win64; x64) AppleWebKit/537.36 (KHTML, like Gecko) Chrome/115.0.0.0 Safari/537.36",WebKit,Chrome,115.0.0.0,Windows,10.0,4246,sad?,71,text_slider_response,,,,,,50
,html-slider-response,27,213679,0.0-5.0-2.4,13,1,2023-07-28 12:48:08,1d0798adfa59f9e8acce3717d57b77cf,,"Mozilla/5.0 (Windows NT 10.0; Win64; x64) AppleWebKit/537.36 (KHTML, like Gecko) Chrome/115.0.0.0 Safari/537.36",WebKit,Chrome,115.0.0.0,Windows,10.0,1939,tender,0,text_slider_response,,,,,,50
,html-slider-response,28,215988,0.0-5.0-3.4,13,1,2023-07-28 12:48:08,1d0798adfa59f9e8acce3717d57b77cf,,"Mozilla/5.0 (Windows NT 10.0; Win64; x64) AppleWebKit/537.36 (KHTML, like Gecko) Chrome/115.0.0.0 Safari/537.36",WebKit,Chrome,115.0.0.0,Windows,10.0,2307,fear,100,text_slider_response,,,,,,50
,html-slider-response,29,217977,0.0-5.0-4.4,13,1,2023-07-28 12:48:08,1d0798adfa59f9e8acce3717d57b77cf,,"Mozilla/5.0 (Windows NT 10.0; Win64; x64) AppleWebKit/537.36 (KHTML, like Gecko) Chrome/115.0.0.0 Safari/537.36",WebKit,Chrome,115.0.0.0,Windows,10.0,1988,anger,100,text_slider_response,,,,,,50
,audio-slider-response,30,238576,0.0-5.0-0.5,13,1,2023-07-28 12:48:08,1d0798adfa59f9e8acce3717d57b77cf,,"Mozilla/5.0 (Windows NT 10.0; Win64; x64) AppleWebKit/537.36 (KHTML, like Gecko) Chrome/115.0.0.0 Safari/537.36",WebKit,Chrome,115.0.0.0,Windows,10.0,20152,001.mp3,100,audio_slider,,,,,,50
,html-slider-response,31,240671,0.0-5.0-1.5,13,1,2023-07-28 12:48:08,1d0798adfa59f9e8acce3717d57b77cf,,"Mozilla/5.0 (Windows NT 10.0; Win64; x64) AppleWebKit/537.36 (KHTML, like Gecko) Chrome/115.0.0.0 Safari/537.36",WebKit,Chrome,115.0.0.0,Windows,10.0,2094,sad?,4,text_slider_response,,,,,,50
,html-slider-response,32,254273,0.0-5.0-2.5,13,1,2023-07-28 12:48:08,1d0798adfa59f9e8acce3717d57b77cf,,"Mozilla/5.0 (Windows NT 10.0; Win64; x64) AppleWebKit/537.36 (KHTML, like Gecko) Chrome/115.0.0.0 Safari/537.36",WebKit,Chrome,115.0.0.0,Windows,10.0,13600,tender,0,text_slider_response,,,,,,50
,html-slider-response,33,256503,0.0-5.0-3.5,13,1,2023-07-28 12:48:08,1d0798adfa59f9e8acce3717d57b77cf,,"Mozilla/5.0 (Windows NT 10.0; Win64; x64) AppleWebKit/537.36 (KHTML, like Gecko) Chrome/115.0.0.0 Safari/537.36",WebKit,Chrome,115.0.0.0,Windows,10.0,2229,fear,0,text_slider_response,,,,,,50
,html-slider-response,34,258500,0.0-5.0-4.5,13,1,2023-07-28 12:48:08,1d0798adfa59f9e8acce3717d57b77cf,,"Mozilla/5.0 (Windows NT 10.0; Win64; x64) AppleWebKit/537.36 (KHTML, like Gecko) Chrome/115.0.0.0 Safari/537.36",WebKit,Chrome,115.0.0.0,Windows,10.0,1996,anger,0,text_slider_response,,,,,,50
true,fullscreen,35,259512,0.0-6.0,13,1,2023-07-28 12:48:08,1d0798adfa59f9e8acce3717d57b77cf,,"Mozilla/5.0 (Windows NT 10.0; Win64; x64) AppleWebKit/537.36 (KHTML, like Gecko) Chrome/115.0.0.0 Safari/537.36",WebKit,Chrome,115.0.0.0,Windows,10.0,,,,,,,,,,
true,fullscreen,0,3446,0.0-0.0,12,1,2023-07-28 12:47:48,1d0798adfa59f9e8acce3717d57b77cf,,"Mozilla/5.0 (Windows NT 10.0; Win64; x64) AppleWebKit/537.36 (KHTML, like Gecko) Chrome/115.0.0.0 Safari/537.36",WebKit,Chrome,115.0.0.0,Windows,10.0,,,,,,,,,,
,html-button-response,1,4542,0.0-1.0,12,1,2023-07-28 12:47:48,1d0798adfa59f9e8acce3717d57b77cf,,"Mozilla/5.0 (Windows NT 10.0; Win64; x64) AppleWebKit/537.36 (KHTML, like Gecko) Chrome/115.0.0.0 Safari/537.36",WebKit,Chrome,115.0.0.0,Windows,10.0,1094,Welcome to the experiment,0,,,,,,,
,html-button-response,2,15594,0.0-2.0,12,1,2023-07-28 12:47:48,1d0798adfa59f9e8acce3717d57b77cf,,"Mozilla/5.0 (Windows NT 10.0; Win64; x64) AppleWebKit/537.36 (KHTML, like Gecko) Chrome/115.0.0.0 Safari/537.36",WebKit,Chrome,115.0.0.0,Windows,10.0,11051,"This study aims to see if musical experience and training affects the induced emotions of nonvocal music.
                      During this study you will be asked to answer questions considering your musical background.
                      
                      Then you will be presented short music clips and asked to rate them according to
                      how strongly they make you feel certain emotions.",0,instruction,,,,,,
,survey-multi-choice,3,46011,0.0-3.0-0.0,12,1,2023-07-28 12:47:48,1d0798adfa59f9e8acce3717d57b77cf,,"Mozilla/5.0 (Windows NT 10.0; Win64; x64) AppleWebKit/537.36 (KHTML, like Gecko) Chrome/115.0.0.0 Safari/537.36",WebKit,Chrome,115.0.0.0,Windows,10.0,30416,,"{""gender"":""Female"",""msi1"":""1"",""msi2"":""0.5"",""msi3"":""2"",""msi4"":""2"",""msi5"":""0""}",multi_choice,"[0,1,2,3,4,5]",,,,,
true,preload,4,46014,0.0-4.0,12,1,2023-07-28 12:47:48,1d0798adfa59f9e8acce3717d57b77cf,,"Mozilla/5.0 (Windows NT 10.0; Win64; x64) AppleWebKit/537.36 (KHTML, like Gecko) Chrome/115.0.0.0 Safari/537.36",WebKit,Chrome,115.0.0.0,Windows,10.0,,,,,,false,[],[],[],
,audio-slider-response,5,67068,0.0-5.0-0.0,12,1,2023-07-28 12:47:48,1d0798adfa59f9e8acce3717d57b77cf,,"Mozilla/5.0 (Windows NT 10.0; Win64; x64) AppleWebKit/537.36 (KHTML, like Gecko) Chrome/115.0.0.0 Safari/537.36",WebKit,Chrome,115.0.0.0,Windows,10.0,20691,061.mp3,61,audio_slider,,,,,,50
,html-slider-response,6,77017,0.0-5.0-1.0,12,1,2023-07-28 12:47:48,1d0798adfa59f9e8acce3717d57b77cf,,"Mozilla/5.0 (Windows NT 10.0; Win64; x64) AppleWebKit/537.36 (KHTML, like Gecko) Chrome/115.0.0.0 Safari/537.36",WebKit,Chrome,115.0.0.0,Windows,10.0,9947,sad?,50,text_slider_response,,,,,,50
,html-slider-response,7,83592,0.0-5.0-2.0,12,1,2023-07-28 12:47:48,1d0798adfa59f9e8acce3717d57b77cf,,"Mozilla/5.0 (Windows NT 10.0; Win64; x64) AppleWebKit/537.36 (KHTML, like Gecko) Chrome/115.0.0.0 Safari/537.36",WebKit,Chrome,115.0.0.0,Windows,10.0,6575,tender,50,text_slider_response,,,,,,50
,html-slider-response,8,85863,0.0-5.0-3.0,12,1,2023-07-28 12:47:48,1d0798adfa59f9e8acce3717d57b77cf,,"Mozilla/5.0 (Windows NT 10.0; Win64; x64) AppleWebKit/537.36 (KHTML, like Gecko) Chrome/115.0.0.0 Safari/537.36",WebKit,Chrome,115.0.0.0,Windows,10.0,2270,fear,50,text_slider_response,,,,,,50
,html-slider-response,9,87572,0.0-5.0-4.0,12,1,2023-07-28 12:47:48,1d0798adfa59f9e8acce3717d57b77cf,,"Mozilla/5.0 (Windows NT 10.0; Win64; x64) AppleWebKit/537.36 (KHTML, like Gecko) Chrome/115.0.0.0 Safari/537.36",WebKit,Chrome,115.0.0.0,Windows,10.0,1708,anger,50,text_slider_response,,,,,,50
,audio-slider-response,10,109685,0.0-5.0-0.1,12,1,2023-07-28 12:47:48,1d0798adfa59f9e8acce3717d57b77cf,,"Mozilla/5.0 (Windows NT 10.0; Win64; x64) AppleWebKit/537.36 (KHTML, like Gecko) Chrome/115.0.0.0 Safari/537.36",WebKit,Chrome,115.0.0.0,Windows,10.0,21720,031.mp3,19,audio_slider,,,,,,50
,html-slider-response,11,113886,0.0-5.0-1.1,12,1,2023-07-28 12:47:48,1d0798adfa59f9e8acce3717d57b77cf,,"Mozilla/5.0 (Windows NT 10.0; Win64; x64) AppleWebKit/537.36 (KHTML, like Gecko) Chrome/115.0.0.0 Safari/537.36",WebKit,Chrome,115.0.0.0,Windows,10.0,4200,sad?,50,text_slider_response,,,,,,50
,html-slider-response,12,115513,0.0-5.0-2.1,12,1,2023-07-28 12:47:48,1d0798adfa59f9e8acce3717d57b77cf,,"Mozilla/5.0 (Windows NT 10.0; Win64; x64) AppleWebKit/537.36 (KHTML, like Gecko) Chrome/115.0.0.0 Safari/537.36",WebKit,Chrome,115.0.0.0,Windows,10.0,1626,tender,50,text_slider_response,,,,,,50
,html-slider-response,13,117295,0.0-5.0-3.1,12,1,2023-07-28 12:47:48,1d0798adfa59f9e8acce3717d57b77cf,,"Mozilla/5.0 (Windows NT 10.0; Win64; x64) AppleWebKit/537.36 (KHTML, like Gecko) Chrome/115.0.0.0 Safari/537.36",WebKit,Chrome,115.0.0.0,Windows,10.0,1782,fear,50,text_slider_response,,,,,,50
,html-slider-response,14,119211,0.0-5.0-4.1,12,1,2023-07-28 12:47:48,1d0798adfa59f9e8acce3717d57b77cf,,"Mozilla/5.0 (Windows NT 10.0; Win64; x64) AppleWebKit/537.36 (KHTML, like Gecko) Chrome/115.0.0.0 Safari/537.36",WebKit,Chrome,115.0.0.0,Windows,10.0,1915,anger,50,text_slider_response,,,,,,50
,audio-slider-response,15,139223,0.0-5.0-0.2,12,1,2023-07-28 12:47:48,1d0798adfa59f9e8acce3717d57b77cf,,"Mozilla/5.0 (Windows NT 10.0; Win64; x64) AppleWebKit/537.36 (KHTML, like Gecko) Chrome/115.0.0.0 Safari/537.36",WebKit,Chrome,115.0.0.0,Windows,10.0,19619,151.mp3,63,audio_slider,,,,,,50
true,fullscreen,0,2579,0.0-0.0,20,1,2023-07-28 12:53:49,1d0798adfa59f9e8acce3717d57b77cf,,"Mozilla/5.0 (Macintosh; Intel Mac OS X 10_15_7) AppleWebKit/605.1.15 (KHTML, like Gecko) Version/16.2 Safari/605.1.15",Macintosh,Safari,16.2,OS X,10_15_7,,,,,,,,,,
,html-button-response,1,3588,0.0-1.0,20,1,2023-07-28 12:53:49,1d0798adfa59f9e8acce3717d57b77cf,,"Mozilla/5.0 (Macintosh; Intel Mac OS X 10_15_7) AppleWebKit/605.1.15 (KHTML, like Gecko) Version/16.2 Safari/605.1.15",Macintosh,Safari,16.2,OS X,10_15_7,1006,Welcome to the experiment,0,,,,,,,
,html-button-response,2,19086,0.0-2.0,20,1,2023-07-28 12:53:49,1d0798adfa59f9e8acce3717d57b77cf,,"Mozilla/5.0 (Macintosh; Intel Mac OS X 10_15_7) AppleWebKit/605.1.15 (KHTML, like Gecko) Version/16.2 Safari/605.1.15",Macintosh,Safari,16.2,OS X,10_15_7,15506,"This study aims to see if musical experience and training affects the induced emotions of nonvocal music.
                      During this study you will be asked to answer questions considering your musical background.
                      
                      Then you will be presented short music clips and asked to rate them according to
                      how strongly they make you feel certain emotions.",0,instruction,,,,,,
,survey-multi-choice,3,209264,0.0-3.0-0.0,20,1,2023-07-28 12:53:49,1d0798adfa59f9e8acce3717d57b77cf,,"Mozilla/5.0 (Macintosh; Intel Mac OS X 10_15_7) AppleWebKit/605.1.15 (KHTML, like Gecko) Version/16.2 Safari/605.1.15",Macintosh,Safari,16.2,OS X,10_15_7,190185,,"{""gender"":""Female"",""msi1"":""4-5"",""msi2"":""1"",""msi3"":""2"",""msi4"":""6-9"",""msi5"":""2""}",multi_choice,"[0,1,2,3,4,5]",,,,,
true,preload,4,209278,0.0-4.0,20,1,2023-07-28 12:53:49,1d0798adfa59f9e8acce3717d57b77cf,,"Mozilla/5.0 (Macintosh; Intel Mac OS X 10_15_7) AppleWebKit/605.1.15 (KHTML, like Gecko) Version/16.2 Safari/605.1.15",Macintosh,Safari,16.2,OS X,10_15_7,,,,,,false,[],[],[],
,audio-slider-response,5,255193,0.0-5.0-0.0,20,1,2023-07-28 12:53:49,1d0798adfa59f9e8acce3717d57b77cf,,"Mozilla/5.0 (Macintosh; Intel Mac OS X 10_15_7) AppleWebKit/605.1.15 (KHTML, like Gecko) Version/16.2 Safari/605.1.15",Macintosh,Safari,16.2,OS X,10_15_7,45664,031.mp3,30,audio_slider,,,,,,50
true,fullscreen,0,2831,0.0-0.0,18,1,2023-07-28 12:50:16,1d0798adfa59f9e8acce3717d57b77cf,,"Mozilla/5.0 (Macintosh; Intel Mac OS X 10_15_7) AppleWebKit/605.1.15 (KHTML, like Gecko) Version/15.6.1 Safari/605.1.15",Macintosh,Safari,15.6.1,OS X,10_15_7,,,,,,,,,,
,html-button-response,1,4112,0.0-1.0,18,1,2023-07-28 12:50:16,1d0798adfa59f9e8acce3717d57b77cf,,"Mozilla/5.0 (Macintosh; Intel Mac OS X 10_15_7) AppleWebKit/605.1.15 (KHTML, like Gecko) Version/15.6.1 Safari/605.1.15",Macintosh,Safari,15.6.1,OS X,10_15_7,1278,Welcome to the experiment,0,,,,,,,
,html-button-response,2,14011,0.0-2.0,18,1,2023-07-28 12:50:16,1d0798adfa59f9e8acce3717d57b77cf,,"Mozilla/5.0 (Macintosh; Intel Mac OS X 10_15_7) AppleWebKit/605.1.15 (KHTML, like Gecko) Version/15.6.1 Safari/605.1.15",Macintosh,Safari,15.6.1,OS X,10_15_7,9897,"This study aims to see if musical experience and training affects the induced emotions of nonvocal music.
                      During this study you will be asked to answer questions considering your musical background.
                      
                      Then you will be presented short music clips and asked to rate them according to
                      how strongly they make you feel certain emotions.",0,instruction,,,,,,
,survey-multi-choice,3,44979,0.0-3.0-0.0,18,1,2023-07-28 12:50:16,1d0798adfa59f9e8acce3717d57b77cf,,"Mozilla/5.0 (Macintosh; Intel Mac OS X 10_15_7) AppleWebKit/605.1.15 (KHTML, like Gecko) Version/15.6.1 Safari/605.1.15",Macintosh,Safari,15.6.1,OS X,10_15_7,30963,,"{""gender"":""Female"",""msi1"":""10 or more"",""msi2"":""0.5"",""msi3"":""7 or more"",""msi4"":""10 or more"",""msi5"":""1""}",multi_choice,"[0,1,2,3,4,5]",,,,,
true,preload,4,44983,0.0-4.0,18,1,2023-07-28 12:50:16,1d0798adfa59f9e8acce3717d57b77cf,,"Mozilla/5.0 (Macintosh; Intel Mac OS X 10_15_7) AppleWebKit/605.1.15 (KHTML, like Gecko) Version/15.6.1 Safari/605.1.15",Macintosh,Safari,15.6.1,OS X,10_15_7,,,,,,false,[],[],[],
,audio-slider-response,5,64481,0.0-5.0-0.0,18,1,2023-07-28 12:50:16,1d0798adfa59f9e8acce3717d57b77cf,,"Mozilla/5.0 (Macintosh; Intel Mac OS X 10_15_7) AppleWebKit/605.1.15 (KHTML, like Gecko) Version/15.6.1 Safari/605.1.15",Macintosh,Safari,15.6.1,OS X,10_15_7,18846,151.mp3,14,audio_slider,,,,,,50
,html-slider-response,6,69347,0.0-5.0-1.0,18,1,2023-07-28 12:50:16,1d0798adfa59f9e8acce3717d57b77cf,,"Mozilla/5.0 (Macintosh; Intel Mac OS X 10_15_7) AppleWebKit/605.1.15 (KHTML, like Gecko) Version/15.6.1 Safari/605.1.15",Macintosh,Safari,15.6.1,OS X,10_15_7,4863,sad?,3,text_slider_response,,,,,,50
,html-slider-response,7,73297,0.0-5.0-2.0,18,1,2023-07-28 12:50:16,1d0798adfa59f9e8acce3717d57b77cf,,"Mozilla/5.0 (Macintosh; Intel Mac OS X 10_15_7) AppleWebKit/605.1.15 (KHTML, like Gecko) Version/15.6.1 Safari/605.1.15",Macintosh,Safari,15.6.1,OS X,10_15_7,3948,tender,79,text_slider_response,,,,,,50
,html-slider-response,8,77626,0.0-5.0-3.0,18,1,2023-07-28 12:50:16,1d0798adfa59f9e8acce3717d57b77cf,,"Mozilla/5.0 (Macintosh; Intel Mac OS X 10_15_7) AppleWebKit/605.1.15 (KHTML, like Gecko) Version/15.6.1 Safari/605.1.15",Macintosh,Safari,15.6.1,OS X,10_15_7,4327,fear,74,text_slider_response,,,,,,50
,html-slider-response,9,80689,0.0-5.0-4.0,18,1,2023-07-28 12:50:16,1d0798adfa59f9e8acce3717d57b77cf,,"Mozilla/5.0 (Macintosh; Intel Mac OS X 10_15_7) AppleWebKit/605.1.15 (KHTML, like Gecko) Version/15.6.1 Safari/605.1.15",Macintosh,Safari,15.6.1,OS X,10_15_7,3061,anger,7,text_slider_response,,,,,,50
,audio-slider-response,10,100394,0.0-5.0-0.1,18,1,2023-07-28 12:50:16,1d0798adfa59f9e8acce3717d57b77cf,,"Mozilla/5.0 (Macintosh; Intel Mac OS X 10_15_7) AppleWebKit/605.1.15 (KHTML, like Gecko) Version/15.6.1 Safari/605.1.15",Macintosh,Safari,15.6.1,OS X,10_15_7,18785,121.mp3,0,audio_slider,,,,,,50
,html-slider-response,11,103176,0.0-5.0-1.1,18,1,2023-07-28 12:50:16,1d0798adfa59f9e8acce3717d57b77cf,,"Mozilla/5.0 (Macintosh; Intel Mac OS X 10_15_7) AppleWebKit/605.1.15 (KHTML, like Gecko) Version/15.6.1 Safari/605.1.15",Macintosh,Safari,15.6.1,OS X,10_15_7,2778,sad?,3,text_slider_response,,,,,,50
,html-slider-response,12,107769,0.0-5.0-2.1,18,1,2023-07-28 12:50:16,1d0798adfa59f9e8acce3717d57b77cf,,"Mozilla/5.0 (Macintosh; Intel Mac OS X 10_15_7) AppleWebKit/605.1.15 (KHTML, like Gecko) Version/15.6.1 Safari/605.1.15",Macintosh,Safari,15.6.1,OS X,10_15_7,4590,tender,96,text_slider_response,,,,,,50
,html-slider-response,13,110435,0.0-5.0-3.1,18,1,2023-07-28 12:50:16,1d0798adfa59f9e8acce3717d57b77cf,,"Mozilla/5.0 (Macintosh; Intel Mac OS X 10_15_7) AppleWebKit/605.1.15 (KHTML, like Gecko) Version/15.6.1 Safari/605.1.15",Macintosh,Safari,15.6.1,OS X,10_15_7,2664,fear,79,text_slider_response,,,,,,50
,html-slider-response,14,117458,0.0-5.0-4.1,18,1,2023-07-28 12:50:16,1d0798adfa59f9e8acce3717d57b77cf,,"Mozilla/5.0 (Macintosh; Intel Mac OS X 10_15_7) AppleWebKit/605.1.15 (KHTML, like Gecko) Version/15.6.1 Safari/605.1.15",Macintosh,Safari,15.6.1,OS X,10_15_7,7021,anger,69,text_slider_response,,,,,,50
,audio-slider-response,15,136127,0.0-5.0-0.2,18,1,2023-07-28 12:50:16,1d0798adfa59f9e8acce3717d57b77cf,,"Mozilla/5.0 (Macintosh; Intel Mac OS X 10_15_7) AppleWebKit/605.1.15 (KHTML, like Gecko) Version/15.6.1 Safari/605.1.15",Macintosh,Safari,15.6.1,OS X,10_15_7,17871,001.mp3,95,audio_slider,,,,,,50
,html-slider-response,16,138436,0.0-5.0-1.2,18,1,2023-07-28 12:50:16,1d0798adfa59f9e8acce3717d57b77cf,,"Mozilla/5.0 (Macintosh; Intel Mac OS X 10_15_7) AppleWebKit/605.1.15 (KHTML, like Gecko) Version/15.6.1 Safari/605.1.15",Macintosh,Safari,15.6.1,OS X,10_15_7,2307,sad?,0,text_slider_response,,,,,,50
,html-slider-response,17,141029,0.0-5.0-2.2,18,1,2023-07-28 12:50:16,1d0798adfa59f9e8acce3717d57b77cf,,"Mozilla/5.0 (Macintosh; Intel Mac OS X 10_15_7) AppleWebKit/605.1.15 (KHTML, like Gecko) Version/15.6.1 Safari/605.1.15",Macintosh,Safari,15.6.1,OS X,10_15_7,2590,tender,10,text_slider_response,,,,,,50
,html-slider-response,18,143787,0.0-5.0-3.2,18,1,2023-07-28 12:50:16,1d0798adfa59f9e8acce3717d57b77cf,,"Mozilla/5.0 (Macintosh; Intel Mac OS X 10_15_7) AppleWebKit/605.1.15 (KHTML, like Gecko) Version/15.6.1 Safari/605.1.15",Macintosh,Safari,15.6.1,OS X,10_15_7,2756,fear,7,text_slider_response,,,,,,50
,html-slider-response,19,146264,0.0-5.0-4.2,18,1,2023-07-28 12:50:16,1d0798adfa59f9e8acce3717d57b77cf,,"Mozilla/5.0 (Macintosh; Intel Mac OS X 10_15_7) AppleWebKit/605.1.15 (KHTML, like Gecko) Version/15.6.1 Safari/605.1.15",Macintosh,Safari,15.6.1,OS X,10_15_7,2475,anger,5,text_slider_response,,,,,,50
,audio-slider-response,20,166165,0.0-5.0-0.3,18,1,2023-07-28 12:50:16,1d0798adfa59f9e8acce3717d57b77cf,,"Mozilla/5.0 (Macintosh; Intel Mac OS X 10_15_7) AppleWebKit/605.1.15 (KHTML, like Gecko) Version/15.6.1 Safari/605.1.15",Macintosh,Safari,15.6.1,OS X,10_15_7,19284,061.mp3,80,audio_slider,,,,,,50
,html-slider-response,21,169948,0.0-5.0-1.3,18,1,2023-07-28 12:50:16,1d0798adfa59f9e8acce3717d57b77cf,,"Mozilla/5.0 (Macintosh; Intel Mac OS X 10_15_7) AppleWebKit/605.1.15 (KHTML, like Gecko) Version/15.6.1 Safari/605.1.15",Macintosh,Safari,15.6.1,OS X,10_15_7,3781,sad?,3,text_slider_response,,,,,,50
,html-slider-response,22,173571,0.0-5.0-2.3,18,1,2023-07-28 12:50:16,1d0798adfa59f9e8acce3717d57b77cf,,"Mozilla/5.0 (Macintosh; Intel Mac OS X 10_15_7) AppleWebKit/605.1.15 (KHTML, like Gecko) Version/15.6.1 Safari/605.1.15",Macintosh,Safari,15.6.1,OS X,10_15_7,3620,tender,16,text_slider_response,,,,,,50
,html-slider-response,23,176114,0.0-5.0-3.3,18,1,2023-07-28 12:50:16,1d0798adfa59f9e8acce3717d57b77cf,,"Mozilla/5.0 (Macintosh; Intel Mac OS X 10_15_7) AppleWebKit/605.1.15 (KHTML, like Gecko) Version/15.6.1 Safari/605.1.15",Macintosh,Safari,15.6.1,OS X,10_15_7,2542,fear,0,text_slider_response,,,,,,50
,html-slider-response,24,178261,0.0-5.0-4.3,18,1,2023-07-28 12:50:16,1d0798adfa59f9e8acce3717d57b77cf,,"Mozilla/5.0 (Macintosh; Intel Mac OS X 10_15_7) AppleWebKit/605.1.15 (KHTML, like Gecko) Version/15.6.1 Safari/605.1.15",Macintosh,Safari,15.6.1,OS X,10_15_7,2145,anger,2,text_slider_response,,,,,,50
,audio-slider-response,25,201385,0.0-5.0-0.4,18,1,2023-07-28 12:50:16,1d0798adfa59f9e8acce3717d57b77cf,,"Mozilla/5.0 (Macintosh; Intel Mac OS X 10_15_7) AppleWebKit/605.1.15 (KHTML, like Gecko) Version/15.6.1 Safari/605.1.15",Macintosh,Safari,15.6.1,OS X,10_15_7,22233,031.mp3,26,audio_slider,,,,,,50
,html-slider-response,26,205157,0.0-5.0-1.4,18,1,2023-07-28 12:50:16,1d0798adfa59f9e8acce3717d57b77cf,,"Mozilla/5.0 (Macintosh; Intel Mac OS X 10_15_7) AppleWebKit/605.1.15 (KHTML, like Gecko) Version/15.6.1 Safari/605.1.15",Macintosh,Safari,15.6.1,OS X,10_15_7,3765,sad?,66,text_slider_response,,,,,,50
,html-slider-response,27,207650,0.0-5.0-2.4,18,1,2023-07-28 12:50:16,1d0798adfa59f9e8acce3717d57b77cf,,"Mozilla/5.0 (Macintosh; Intel Mac OS X 10_15_7) AppleWebKit/605.1.15 (KHTML, like Gecko) Version/15.6.1 Safari/605.1.15",Macintosh,Safari,15.6.1,OS X,10_15_7,2491,tender,62,text_slider_response,,,,,,50
,html-slider-response,28,210513,0.0-5.0-3.4,18,1,2023-07-28 12:50:16,1d0798adfa59f9e8acce3717d57b77cf,,"Mozilla/5.0 (Macintosh; Intel Mac OS X 10_15_7) AppleWebKit/605.1.15 (KHTML, like Gecko) Version/15.6.1 Safari/605.1.15",Macintosh,Safari,15.6.1,OS X,10_15_7,2862,fear,64,text_slider_response,,,,,,50
,html-slider-response,29,214800,0.0-5.0-4.4,18,1,2023-07-28 12:50:16,1d0798adfa59f9e8acce3717d57b77cf,,"Mozilla/5.0 (Macintosh; Intel Mac OS X 10_15_7) AppleWebKit/605.1.15 (KHTML, like Gecko) Version/15.6.1 Safari/605.1.15",Macintosh,Safari,15.6.1,OS X,10_15_7,4285,anger,10,text_slider_response,,,,,,50
,audio-slider-response,30,234386,0.0-5.0-0.5,18,1,2023-07-28 12:50:16,1d0798adfa59f9e8acce3717d57b77cf,,"Mozilla/5.0 (Macintosh; Intel Mac OS X 10_15_7) AppleWebKit/605.1.15 (KHTML, like Gecko) Version/15.6.1 Safari/605.1.15",Macintosh,Safari,15.6.1,OS X,10_15_7,18768,091.mp3,3,audio_slider,,,,,,50
,html-slider-response,31,238960,0.0-5.0-1.5,18,1,2023-07-28 12:50:16,1d0798adfa59f9e8acce3717d57b77cf,,"Mozilla/5.0 (Macintosh; Intel Mac OS X 10_15_7) AppleWebKit/605.1.15 (KHTML, like Gecko) Version/15.6.1 Safari/605.1.15",Macintosh,Safari,15.6.1,OS X,10_15_7,4571,sad?,9,text_slider_response,,,,,,50
,html-slider-response,32,241403,0.0-5.0-2.5,18,1,2023-07-28 12:50:16,1d0798adfa59f9e8acce3717d57b77cf,,"Mozilla/5.0 (Macintosh; Intel Mac OS X 10_15_7) AppleWebKit/605.1.15 (KHTML, like Gecko) Version/15.6.1 Safari/605.1.15",Macintosh,Safari,15.6.1,OS X,10_15_7,2441,tender,93,text_slider_response,,,,,,50
true,fullscreen,0,1850,0.0-0.0,21,1,2023-07-28 12:58:47,1d0798adfa59f9e8acce3717d57b77cf,,"Mozilla/5.0 (Macintosh; Intel Mac OS X 10_15_7) AppleWebKit/605.1.15 (KHTML, like Gecko) Version/16.2 Safari/605.1.15",Macintosh,Safari,16.2,OS X,10_15_7,,,,,,,,,,
,html-button-response,1,2983,0.0-1.0,21,1,2023-07-28 12:58:47,1d0798adfa59f9e8acce3717d57b77cf,,"Mozilla/5.0 (Macintosh; Intel Mac OS X 10_15_7) AppleWebKit/605.1.15 (KHTML, like Gecko) Version/16.2 Safari/605.1.15",Macintosh,Safari,16.2,OS X,10_15_7,1130,Welcome to the experiment,0,,,,,,,
,html-button-response,2,4096,0.0-2.0,21,1,2023-07-28 12:58:47,1d0798adfa59f9e8acce3717d57b77cf,,"Mozilla/5.0 (Macintosh; Intel Mac OS X 10_15_7) AppleWebKit/605.1.15 (KHTML, like Gecko) Version/16.2 Safari/605.1.15",Macintosh,Safari,16.2,OS X,10_15_7,1111,"This study aims to see if musical experience and training affects the induced emotions of nonvocal music.
                      During this study you will be asked to answer questions considering your musical background.
                      
                      Then you will be presented short music clips and asked to rate them according to
                      how strongly they make you feel certain emotions.",0,instruction,,,,,,
,survey-multi-choice,3,34085,0.0-3.0-0.0,21,1,2023-07-28 12:58:47,1d0798adfa59f9e8acce3717d57b77cf,,"Mozilla/5.0 (Macintosh; Intel Mac OS X 10_15_7) AppleWebKit/605.1.15 (KHTML, like Gecko) Version/16.2 Safari/605.1.15",Macintosh,Safari,16.2,OS X,10_15_7,29985,,"{""gender"":""Female"",""msi1"":""4-5"",""msi2"":""1"",""msi3"":""2"",""msi4"":""6-9"",""msi5"":""2""}",multi_choice,"[0,1,2,3,4,5]",,,,,
true,preload,4,34089,0.0-4.0,21,1,2023-07-28 12:58:47,1d0798adfa59f9e8acce3717d57b77cf,,"Mozilla/5.0 (Macintosh; Intel Mac OS X 10_15_7) AppleWebKit/605.1.15 (KHTML, like Gecko) Version/16.2 Safari/605.1.15",Macintosh,Safari,16.2,OS X,10_15_7,,,,,,false,[],[],[],
,audio-slider-response,5,53584,0.0-5.0-0.0,21,1,2023-07-28 12:58:47,1d0798adfa59f9e8acce3717d57b77cf,,"Mozilla/5.0 (Macintosh; Intel Mac OS X 10_15_7) AppleWebKit/605.1.15 (KHTML, like Gecko) Version/16.2 Safari/605.1.15",Macintosh,Safari,16.2,OS X,10_15_7,19296,151.mp3,65,audio_slider,,,,,,50
,html-slider-response,6,86662,0.0-5.0-1.0,21,1,2023-07-28 12:58:47,1d0798adfa59f9e8acce3717d57b77cf,,"Mozilla/5.0 (Macintosh; Intel Mac OS X 10_15_7) AppleWebKit/605.1.15 (KHTML, like Gecko) Version/16.2 Safari/605.1.15",Macintosh,Safari,16.2,OS X,10_15_7,33076,sad?,50,text_slider_response,,,,,,50
,html-slider-response,7,154149,0.0-5.0-2.0,21,1,2023-07-28 12:58:47,1d0798adfa59f9e8acce3717d57b77cf,,"Mozilla/5.0 (Macintosh; Intel Mac OS X 10_15_7) AppleWebKit/605.1.15 (KHTML, like Gecko) Version/16.2 Safari/605.1.15",Macintosh,Safari,16.2,OS X,10_15_7,67485,tender,64,text_slider_response,,,,,,50
,html-slider-response,8,157592,0.0-5.0-3.0,21,1,2023-07-28 12:58:47,1d0798adfa59f9e8acce3717d57b77cf,,"Mozilla/5.0 (Macintosh; Intel Mac OS X 10_15_7) AppleWebKit/605.1.15 (KHTML, like Gecko) Version/16.2 Safari/605.1.15",Macintosh,Safari,16.2,OS X,10_15_7,3441,fear,26,text_slider_response,,,,,,50
true,fullscreen,0,2070,0.0-0.0,17,1,2023-07-28 12:50:05,1d0798adfa59f9e8acce3717d57b77cf,,"Mozilla/5.0 (Macintosh; Intel Mac OS X 10_15_7) AppleWebKit/605.1.15 (KHTML, like Gecko) Version/16.1 Safari/605.1.15",Macintosh,Safari,16.1,OS X,10_15_7,,,,,,,,,,
,html-button-response,1,2879,0.0-1.0,17,1,2023-07-28 12:50:05,1d0798adfa59f9e8acce3717d57b77cf,,"Mozilla/5.0 (Macintosh; Intel Mac OS X 10_15_7) AppleWebKit/605.1.15 (KHTML, like Gecko) Version/16.1 Safari/605.1.15",Macintosh,Safari,16.1,OS X,10_15_7,805,Welcome to the experiment,0,,,,,,,
,html-button-response,2,9635,0.0-2.0,17,1,2023-07-28 12:50:05,1d0798adfa59f9e8acce3717d57b77cf,,"Mozilla/5.0 (Macintosh; Intel Mac OS X 10_15_7) AppleWebKit/605.1.15 (KHTML, like Gecko) Version/16.1 Safari/605.1.15",Macintosh,Safari,16.1,OS X,10_15_7,6753,"This study aims to see if musical experience and training affects the induced emotions of nonvocal music.
                      During this study you will be asked to answer questions considering your musical background.
                      
                      Then you will be presented short music clips and asked to rate them according to
                      how strongly they make you feel certain emotions.",0,instruction,,,,,,
,survey-multi-choice,3,41411,0.0-3.0-0.0,17,1,2023-07-28 12:50:05,1d0798adfa59f9e8acce3717d57b77cf,,"Mozilla/5.0 (Macintosh; Intel Mac OS X 10_15_7) AppleWebKit/605.1.15 (KHTML, like Gecko) Version/16.1 Safari/605.1.15",Macintosh,Safari,16.1,OS X,10_15_7,31771,,"{""gender"":""Female"",""msi1"":""4-5"",""msi2"":""1"",""msi3"":""0"",""msi4"":""3-5"",""msi5"":""2""}",multi_choice,"[0,1,2,3,4,5]",,,,,
true,preload,4,41416,0.0-4.0,17,1,2023-07-28 12:50:05,1d0798adfa59f9e8acce3717d57b77cf,,"Mozilla/5.0 (Macintosh; Intel Mac OS X 10_15_7) AppleWebKit/605.1.15 (KHTML, like Gecko) Version/16.1 Safari/605.1.15",Macintosh,Safari,16.1,OS X,10_15_7,,,,,,false,[],[],[],
,audio-slider-response,5,59418,0.0-5.0-0.0,17,1,2023-07-28 12:50:05,1d0798adfa59f9e8acce3717d57b77cf,,"Mozilla/5.0 (Macintosh; Intel Mac OS X 10_15_7) AppleWebKit/605.1.15 (KHTML, like Gecko) Version/16.1 Safari/605.1.15",Macintosh,Safari,16.1,OS X,10_15_7,17933,151.mp3,58,audio_slider,,,,,,50
,html-slider-response,6,69503,0.0-5.0-1.0,17,1,2023-07-28 12:50:05,1d0798adfa59f9e8acce3717d57b77cf,,"Mozilla/5.0 (Macintosh; Intel Mac OS X 10_15_7) AppleWebKit/605.1.15 (KHTML, like Gecko) Version/16.1 Safari/605.1.15",Macintosh,Safari,16.1,OS X,10_15_7,10081,sad?,21,text_slider_response,,,,,,50
,html-slider-response,7,74512,0.0-5.0-2.0,17,1,2023-07-28 12:50:05,1d0798adfa59f9e8acce3717d57b77cf,,"Mozilla/5.0 (Macintosh; Intel Mac OS X 10_15_7) AppleWebKit/605.1.15 (KHTML, like Gecko) Version/16.1 Safari/605.1.15",Macintosh,Safari,16.1,OS X,10_15_7,5005,tender,49,text_slider_response,,,,,,50
,html-slider-response,8,77389,0.0-5.0-3.0,17,1,2023-07-28 12:50:05,1d0798adfa59f9e8acce3717d57b77cf,,"Mozilla/5.0 (Macintosh; Intel Mac OS X 10_15_7) AppleWebKit/605.1.15 (KHTML, like Gecko) Version/16.1 Safari/605.1.15",Macintosh,Safari,16.1,OS X,10_15_7,2874,fear,27,text_slider_response,,,,,,50
,html-slider-response,9,79838,0.0-5.0-4.0,17,1,2023-07-28 12:50:05,1d0798adfa59f9e8acce3717d57b77cf,,"Mozilla/5.0 (Macintosh; Intel Mac OS X 10_15_7) AppleWebKit/605.1.15 (KHTML, like Gecko) Version/16.1 Safari/605.1.15",Macintosh,Safari,16.1,OS X,10_15_7,2446,anger,24,text_slider_response,,,,,,50
,audio-slider-response,10,97842,0.0-5.0-0.1,17,1,2023-07-28 12:50:05,1d0798adfa59f9e8acce3717d57b77cf,,"Mozilla/5.0 (Macintosh; Intel Mac OS X 10_15_7) AppleWebKit/605.1.15 (KHTML, like Gecko) Version/16.1 Safari/605.1.15",Macintosh,Safari,16.1,OS X,10_15_7,17947,061.mp3,27,audio_slider,,,,,,50
,html-slider-response,11,104885,0.0-5.0-1.1,17,1,2023-07-28 12:50:05,1d0798adfa59f9e8acce3717d57b77cf,,"Mozilla/5.0 (Macintosh; Intel Mac OS X 10_15_7) AppleWebKit/605.1.15 (KHTML, like Gecko) Version/16.1 Safari/605.1.15",Macintosh,Safari,16.1,OS X,10_15_7,7040,sad?,59,text_slider_response,,,,,,50
,html-slider-response,12,108056,0.0-5.0-2.1,17,1,2023-07-28 12:50:05,1d0798adfa59f9e8acce3717d57b77cf,,"Mozilla/5.0 (Macintosh; Intel Mac OS X 10_15_7) AppleWebKit/605.1.15 (KHTML, like Gecko) Version/16.1 Safari/605.1.15",Macintosh,Safari,16.1,OS X,10_15_7,3168,tender,69,text_slider_response,,,,,,50
,html-slider-response,13,112197,0.0-5.0-3.1,17,1,2023-07-28 12:50:05,1d0798adfa59f9e8acce3717d57b77cf,,"Mozilla/5.0 (Macintosh; Intel Mac OS X 10_15_7) AppleWebKit/605.1.15 (KHTML, like Gecko) Version/16.1 Safari/605.1.15",Macintosh,Safari,16.1,OS X,10_15_7,4137,fear,22,text_slider_response,,,,,,50
,html-slider-response,14,119299,0.0-5.0-4.1,17,1,2023-07-28 12:50:05,1d0798adfa59f9e8acce3717d57b77cf,,"Mozilla/5.0 (Macintosh; Intel Mac OS X 10_15_7) AppleWebKit/605.1.15 (KHTML, like Gecko) Version/16.1 Safari/605.1.15",Macintosh,Safari,16.1,OS X,10_15_7,7098,anger,15,text_slider_response,,,,,,50
,audio-slider-response,15,135919,0.0-5.0-0.2,17,1,2023-07-28 12:50:05,1d0798adfa59f9e8acce3717d57b77cf,,"Mozilla/5.0 (Macintosh; Intel Mac OS X 10_15_7) AppleWebKit/605.1.15 (KHTML, like Gecko) Version/16.1 Safari/605.1.15",Macintosh,Safari,16.1,OS X,10_15_7,16560,001.mp3,88,audio_slider,,,,,,50
,html-slider-response,16,137984,0.0-5.0-1.2,17,1,2023-07-28 12:50:05,1d0798adfa59f9e8acce3717d57b77cf,,"Mozilla/5.0 (Macintosh; Intel Mac OS X 10_15_7) AppleWebKit/605.1.15 (KHTML, like Gecko) Version/16.1 Safari/605.1.15",Macintosh,Safari,16.1,OS X,10_15_7,2062,sad?,9,text_slider_response,,,,,,50
,html-slider-response,17,140090,0.0-5.0-2.2,17,1,2023-07-28 12:50:05,1d0798adfa59f9e8acce3717d57b77cf,,"Mozilla/5.0 (Macintosh; Intel Mac OS X 10_15_7) AppleWebKit/605.1.15 (KHTML, like Gecko) Version/16.1 Safari/605.1.15",Macintosh,Safari,16.1,OS X,10_15_7,2103,tender,28,text_slider_response,,,,,,50
,html-slider-response,18,142163,0.0-5.0-3.2,17,1,2023-07-28 12:50:05,1d0798adfa59f9e8acce3717d57b77cf,,"Mozilla/5.0 (Macintosh; Intel Mac OS X 10_15_7) AppleWebKit/605.1.15 (KHTML, like Gecko) Version/16.1 Safari/605.1.15",Macintosh,Safari,16.1,OS X,10_15_7,2071,fear,20,text_slider_response,,,,,,50
,html-slider-response,19,144131,0.0-5.0-4.2,17,1,2023-07-28 12:50:05,1d0798adfa59f9e8acce3717d57b77cf,,"Mozilla/5.0 (Macintosh; Intel Mac OS X 10_15_7) AppleWebKit/605.1.15 (KHTML, like Gecko) Version/16.1 Safari/605.1.15",Macintosh,Safari,16.1,OS X,10_15_7,1964,anger,20,text_slider_response,,,,,,50
,audio-slider-response,20,163185,0.0-5.0-0.3,17,1,2023-07-28 12:50:05,1d0798adfa59f9e8acce3717d57b77cf,,"Mozilla/5.0 (Macintosh; Intel Mac OS X 10_15_7) AppleWebKit/605.1.15 (KHTML, like Gecko) Version/16.1 Safari/605.1.15",Macintosh,Safari,16.1,OS X,10_15_7,18992,091.mp3,17,audio_slider,,,,,,50
,html-slider-response,21,167251,0.0-5.0-1.3,17,1,2023-07-28 12:50:05,1d0798adfa59f9e8acce3717d57b77cf,,"Mozilla/5.0 (Macintosh; Intel Mac OS X 10_15_7) AppleWebKit/605.1.15 (KHTML, like Gecko) Version/16.1 Safari/605.1.15",Macintosh,Safari,16.1,OS X,10_15_7,4061,sad?,28,text_slider_response,,,,,,50
,html-slider-response,22,169569,0.0-5.0-2.3,17,1,2023-07-28 12:50:05,1d0798adfa59f9e8acce3717d57b77cf,,"Mozilla/5.0 (Macintosh; Intel Mac OS X 10_15_7) AppleWebKit/605.1.15 (KHTML, like Gecko) Version/16.1 Safari/605.1.15",Macintosh,Safari,16.1,OS X,10_15_7,2314,tender,9,text_slider_response,,,,,,50
,html-slider-response,23,172284,0.0-5.0-3.3,17,1,2023-07-28 12:50:05,1d0798adfa59f9e8acce3717d57b77cf,,"Mozilla/5.0 (Macintosh; Intel Mac OS X 10_15_7) AppleWebKit/605.1.15 (KHTML, like Gecko) Version/16.1 Safari/605.1.15",Macintosh,Safari,16.1,OS X,10_15_7,2712,fear,78,text_slider_response,,,,,,50
,html-slider-response,24,177359,0.0-5.0-4.3,17,1,2023-07-28 12:50:05,1d0798adfa59f9e8acce3717d57b77cf,,"Mozilla/5.0 (Macintosh; Intel Mac OS X 10_15_7) AppleWebKit/605.1.15 (KHTML, like Gecko) Version/16.1 Safari/605.1.15",Macintosh,Safari,16.1,OS X,10_15_7,5073,anger,66,text_slider_response,,,,,,50
,audio-slider-response,25,200167,0.0-5.0-0.4,17,1,2023-07-28 12:50:05,1d0798adfa59f9e8acce3717d57b77cf,,"Mozilla/5.0 (Macintosh; Intel Mac OS X 10_15_7) AppleWebKit/605.1.15 (KHTML, like Gecko) Version/16.1 Safari/605.1.15",Macintosh,Safari,16.1,OS X,10_15_7,22739,031.mp3,37,audio_slider,,,,,,50
,html-slider-response,26,202656,0.0-5.0-1.4,17,1,2023-07-28 12:50:05,1d0798adfa59f9e8acce3717d57b77cf,,"Mozilla/5.0 (Macintosh; Intel Mac OS X 10_15_7) AppleWebKit/605.1.15 (KHTML, like Gecko) Version/16.1 Safari/605.1.15",Macintosh,Safari,16.1,OS X,10_15_7,2486,sad?,55,text_slider_response,,,,,,50
,html-slider-response,27,206072,0.0-5.0-2.4,17,1,2023-07-28 12:50:05,1d0798adfa59f9e8acce3717d57b77cf,,"Mozilla/5.0 (Macintosh; Intel Mac OS X 10_15_7) AppleWebKit/605.1.15 (KHTML, like Gecko) Version/16.1 Safari/605.1.15",Macintosh,Safari,16.1,OS X,10_15_7,3413,tender,74,text_slider_response,,,,,,50
,html-slider-response,28,209261,0.0-5.0-3.4,17,1,2023-07-28 12:50:05,1d0798adfa59f9e8acce3717d57b77cf,,"Mozilla/5.0 (Macintosh; Intel Mac OS X 10_15_7) AppleWebKit/605.1.15 (KHTML, like Gecko) Version/16.1 Safari/605.1.15",Macintosh,Safari,16.1,OS X,10_15_7,3187,fear,28,text_slider_response,,,,,,50
,html-slider-response,29,212577,0.0-5.0-4.4,17,1,2023-07-28 12:50:05,1d0798adfa59f9e8acce3717d57b77cf,,"Mozilla/5.0 (Macintosh; Intel Mac OS X 10_15_7) AppleWebKit/605.1.15 (KHTML, like Gecko) Version/16.1 Safari/605.1.15",Macintosh,Safari,16.1,OS X,10_15_7,3313,anger,16,text_slider_response,,,,,,50
,audio-slider-response,30,232477,0.0-5.0-0.5,17,1,2023-07-28 12:50:05,1d0798adfa59f9e8acce3717d57b77cf,,"Mozilla/5.0 (Macintosh; Intel Mac OS X 10_15_7) AppleWebKit/605.1.15 (KHTML, like Gecko) Version/16.1 Safari/605.1.15",Macintosh,Safari,16.1,OS X,10_15_7,19840,121.mp3,21,audio_slider,,,,,,50
,html-slider-response,31,234501,0.0-5.0-1.5,17,1,2023-07-28 12:50:05,1d0798adfa59f9e8acce3717d57b77cf,,"Mozilla/5.0 (Macintosh; Intel Mac OS X 10_15_7) AppleWebKit/605.1.15 (KHTML, like Gecko) Version/16.1 Safari/605.1.15",Macintosh,Safari,16.1,OS X,10_15_7,2021,sad?,33,text_slider_response,,,,,,50
,html-slider-response,32,236566,0.0-5.0-2.5,17,1,2023-07-28 12:50:05,1d0798adfa59f9e8acce3717d57b77cf,,"Mozilla/5.0 (Macintosh; Intel Mac OS X 10_15_7) AppleWebKit/605.1.15 (KHTML, like Gecko) Version/16.1 Safari/605.1.15",Macintosh,Safari,16.1,OS X,10_15_7,2062,tender,12,text_slider_response,,,,,,50
,html-slider-response,33,240104,0.0-5.0-3.5,17,1,2023-07-28 12:50:05,1d0798adfa59f9e8acce3717d57b77cf,,"Mozilla/5.0 (Macintosh; Intel Mac OS X 10_15_7) AppleWebKit/605.1.15 (KHTML, like Gecko) Version/16.1 Safari/605.1.15",Macintosh,Safari,16.1,OS X,10_15_7,3534,fear,72,text_slider_response,,,,,,50
true,fullscreen,0,5344,0.0-0.0,15,1,2023-07-28 12:48:43,1d0798adfa59f9e8acce3717d57b77cf,,"Mozilla/5.0 (Macintosh; Intel Mac OS X 10_15_7) AppleWebKit/605.1.15 (KHTML, like Gecko) Version/16.5.2 Safari/605.1.15",Macintosh,Safari,16.5.2,OS X,10_15_7,,,,,,,,,,
,html-button-response,1,8581,0.0-1.0,15,1,2023-07-28 12:48:43,1d0798adfa59f9e8acce3717d57b77cf,,"Mozilla/5.0 (Macintosh; Intel Mac OS X 10_15_7) AppleWebKit/605.1.15 (KHTML, like Gecko) Version/16.5.2 Safari/605.1.15",Macintosh,Safari,16.5.2,OS X,10_15_7,3232,Welcome to the experiment,0,,,,,,,
,html-button-response,2,21803,0.0-2.0,15,1,2023-07-28 12:48:43,1d0798adfa59f9e8acce3717d57b77cf,,"Mozilla/5.0 (Macintosh; Intel Mac OS X 10_15_7) AppleWebKit/605.1.15 (KHTML, like Gecko) Version/16.5.2 Safari/605.1.15",Macintosh,Safari,16.5.2,OS X,10_15_7,13218,"This study aims to see if musical experience and training affects the induced emotions of nonvocal music.
                      During this study you will be asked to answer questions considering your musical background.
                      
                      Then you will be presented short music clips and asked to rate them according to
                      how strongly they make you feel certain emotions.",0,instruction,,,,,,
,survey-multi-choice,3,62738,0.0-3.0-0.0,15,1,2023-07-28 12:48:43,1d0798adfa59f9e8acce3717d57b77cf,,"Mozilla/5.0 (Macintosh; Intel Mac OS X 10_15_7) AppleWebKit/605.1.15 (KHTML, like Gecko) Version/16.5.2 Safari/605.1.15",Macintosh,Safari,16.5.2,OS X,10_15_7,40907,,"{""gender"":""Female"",""msi1"":""6-9"",""msi2"":""3-4"",""msi3"":""4-6"",""msi4"":""6-9"",""msi5"":""6 or more""}",multi_choice,"[0,1,2,3,4,5]",,,,,
true,preload,4,62753,0.0-4.0,15,1,2023-07-28 12:48:43,1d0798adfa59f9e8acce3717d57b77cf,,"Mozilla/5.0 (Macintosh; Intel Mac OS X 10_15_7) AppleWebKit/605.1.15 (KHTML, like Gecko) Version/16.5.2 Safari/605.1.15",Macintosh,Safari,16.5.2,OS X,10_15_7,,,,,,false,[],[],[],
,audio-slider-response,5,95729,0.0-5.0-0.0,15,1,2023-07-28 12:48:43,1d0798adfa59f9e8acce3717d57b77cf,,"Mozilla/5.0 (Macintosh; Intel Mac OS X 10_15_7) AppleWebKit/605.1.15 (KHTML, like Gecko) Version/16.5.2 Safari/605.1.15",Macintosh,Safari,16.5.2,OS X,10_15_7,32862,031.mp3,59,audio_slider,,,,,,50
,html-slider-response,6,99109,0.0-5.0-1.0,15,1,2023-07-28 12:48:43,1d0798adfa59f9e8acce3717d57b77cf,,"Mozilla/5.0 (Macintosh; Intel Mac OS X 10_15_7) AppleWebKit/605.1.15 (KHTML, like Gecko) Version/16.5.2 Safari/605.1.15",Macintosh,Safari,16.5.2,OS X,10_15_7,3376,sad?,0,text_slider_response,,,,,,50
,html-slider-response,7,107825,0.0-5.0-2.0,15,1,2023-07-28 12:48:43,1d0798adfa59f9e8acce3717d57b77cf,,"Mozilla/5.0 (Macintosh; Intel Mac OS X 10_15_7) AppleWebKit/605.1.15 (KHTML, like Gecko) Version/16.5.2 Safari/605.1.15",Macintosh,Safari,16.5.2,OS X,10_15_7,8713,tender,0,text_slider_response,,,,,,50
,html-slider-response,8,110297,0.0-5.0-3.0,15,1,2023-07-28 12:48:43,1d0798adfa59f9e8acce3717d57b77cf,,"Mozilla/5.0 (Macintosh; Intel Mac OS X 10_15_7) AppleWebKit/605.1.15 (KHTML, like Gecko) Version/16.5.2 Safari/605.1.15",Macintosh,Safari,16.5.2,OS X,10_15_7,2468,fear,0,text_slider_response,,,,,,50
,html-slider-response,9,112808,0.0-5.0-4.0,15,1,2023-07-28 12:48:43,1d0798adfa59f9e8acce3717d57b77cf,,"Mozilla/5.0 (Macintosh; Intel Mac OS X 10_15_7) AppleWebKit/605.1.15 (KHTML, like Gecko) Version/16.5.2 Safari/605.1.15",Macintosh,Safari,16.5.2,OS X,10_15_7,2509,anger,0,text_slider_response,,,,,,50
,audio-slider-response,10,147541,0.0-5.0-0.1,15,1,2023-07-28 12:48:43,1d0798adfa59f9e8acce3717d57b77cf,,"Mozilla/5.0 (Macintosh; Intel Mac OS X 10_15_7) AppleWebKit/605.1.15 (KHTML, like Gecko) Version/16.5.2 Safari/605.1.15",Macintosh,Safari,16.5.2,OS X,10_15_7,34575,061.mp3,84,audio_slider,,,,,,50
,html-slider-response,11,163461,0.0-5.0-1.1,15,1,2023-07-28 12:48:43,1d0798adfa59f9e8acce3717d57b77cf,,"Mozilla/5.0 (Macintosh; Intel Mac OS X 10_15_7) AppleWebKit/605.1.15 (KHTML, like Gecko) Version/16.5.2 Safari/605.1.15",Macintosh,Safari,16.5.2,OS X,10_15_7,15916,sad?,0,text_slider_response,,,,,,50
,html-slider-response,12,165545,0.0-5.0-2.1,15,1,2023-07-28 12:48:43,1d0798adfa59f9e8acce3717d57b77cf,,"Mozilla/5.0 (Macintosh; Intel Mac OS X 10_15_7) AppleWebKit/605.1.15 (KHTML, like Gecko) Version/16.5.2 Safari/605.1.15",Macintosh,Safari,16.5.2,OS X,10_15_7,2074,tender,0,text_slider_response,,,,,,50
,html-slider-response,13,167762,0.0-5.0-3.1,15,1,2023-07-28 12:48:43,1d0798adfa59f9e8acce3717d57b77cf,,"Mozilla/5.0 (Macintosh; Intel Mac OS X 10_15_7) AppleWebKit/605.1.15 (KHTML, like Gecko) Version/16.5.2 Safari/605.1.15",Macintosh,Safari,16.5.2,OS X,10_15_7,2214,fear,0,text_slider_response,,,,,,50
,html-slider-response,14,169472,0.0-5.0-4.1,15,1,2023-07-28 12:48:43,1d0798adfa59f9e8acce3717d57b77cf,,"Mozilla/5.0 (Macintosh; Intel Mac OS X 10_15_7) AppleWebKit/605.1.15 (KHTML, like Gecko) Version/16.5.2 Safari/605.1.15",Macintosh,Safari,16.5.2,OS X,10_15_7,1707,anger,0,text_slider_response,,,,,,50
,audio-slider-response,15,192680,0.0-5.0-0.2,15,1,2023-07-28 12:48:43,1d0798adfa59f9e8acce3717d57b77cf,,"Mozilla/5.0 (Macintosh; Intel Mac OS X 10_15_7) AppleWebKit/605.1.15 (KHTML, like Gecko) Version/16.5.2 Safari/605.1.15",Macintosh,Safari,16.5.2,OS X,10_15_7,23104,121.mp3,29,audio_slider,,,,,,50
,html-slider-response,16,194553,0.0-5.0-1.2,15,1,2023-07-28 12:48:43,1d0798adfa59f9e8acce3717d57b77cf,,"Mozilla/5.0 (Macintosh; Intel Mac OS X 10_15_7) AppleWebKit/605.1.15 (KHTML, like Gecko) Version/16.5.2 Safari/605.1.15",Macintosh,Safari,16.5.2,OS X,10_15_7,1868,sad?,0,text_slider_response,,,,,,50
,html-slider-response,17,212963,0.0-5.0-2.2,15,1,2023-07-28 12:48:43,1d0798adfa59f9e8acce3717d57b77cf,,"Mozilla/5.0 (Macintosh; Intel Mac OS X 10_15_7) AppleWebKit/605.1.15 (KHTML, like Gecko) Version/16.5.2 Safari/605.1.15",Macintosh,Safari,16.5.2,OS X,10_15_7,18406,tender,0,text_slider_response,,,,,,50
,html-slider-response,18,215859,0.0-5.0-3.2,15,1,2023-07-28 12:48:43,1d0798adfa59f9e8acce3717d57b77cf,,"Mozilla/5.0 (Macintosh; Intel Mac OS X 10_15_7) AppleWebKit/605.1.15 (KHTML, like Gecko) Version/16.5.2 Safari/605.1.15",Macintosh,Safari,16.5.2,OS X,10_15_7,2893,fear,56,text_slider_response,,,,,,50
,html-slider-response,19,218567,0.0-5.0-4.2,15,1,2023-07-28 12:48:43,1d0798adfa59f9e8acce3717d57b77cf,,"Mozilla/5.0 (Macintosh; Intel Mac OS X 10_15_7) AppleWebKit/605.1.15 (KHTML, like Gecko) Version/16.5.2 Safari/605.1.15",Macintosh,Safari,16.5.2,OS X,10_15_7,2704,anger,60,text_slider_response,,,,,,50
,audio-slider-response,20,239202,0.0-5.0-0.3,15,1,2023-07-28 12:48:43,1d0798adfa59f9e8acce3717d57b77cf,,"Mozilla/5.0 (Macintosh; Intel Mac OS X 10_15_7) AppleWebKit/605.1.15 (KHTML, like Gecko) Version/16.5.2 Safari/605.1.15",Macintosh,Safari,16.5.2,OS X,10_15_7,20535,001.mp3,59,audio_slider,,,,,,50
,html-slider-response,21,248082,0.0-5.0-1.3,15,1,2023-07-28 12:48:43,1d0798adfa59f9e8acce3717d57b77cf,,"Mozilla/5.0 (Macintosh; Intel Mac OS X 10_15_7) AppleWebKit/605.1.15 (KHTML, like Gecko) Version/16.5.2 Safari/605.1.15",Macintosh,Safari,16.5.2,OS X,10_15_7,8876,sad?,0,text_slider_response,,,,,,50
,html-slider-response,22,250274,0.0-5.0-2.3,15,1,2023-07-28 12:48:43,1d0798adfa59f9e8acce3717d57b77cf,,"Mozilla/5.0 (Macintosh; Intel Mac OS X 10_15_7) AppleWebKit/605.1.15 (KHTML, like Gecko) Version/16.5.2 Safari/605.1.15",Macintosh,Safari,16.5.2,OS X,10_15_7,2184,tender,67,text_slider_response,,,,,,50
,html-slider-response,23,251975,0.0-5.0-3.3,15,1,2023-07-28 12:48:43,1d0798adfa59f9e8acce3717d57b77cf,,"Mozilla/5.0 (Macintosh; Intel Mac OS X 10_15_7) AppleWebKit/605.1.15 (KHTML, like Gecko) Version/16.5.2 Safari/605.1.15",Macintosh,Safari,16.5.2,OS X,10_15_7,1699,fear,0,text_slider_response,,,,,,50
,html-slider-response,24,255028,0.0-5.0-4.3,15,1,2023-07-28 12:48:43,1d0798adfa59f9e8acce3717d57b77cf,,"Mozilla/5.0 (Macintosh; Intel Mac OS X 10_15_7) AppleWebKit/605.1.15 (KHTML, like Gecko) Version/16.5.2 Safari/605.1.15",Macintosh,Safari,16.5.2,OS X,10_15_7,3050,anger,0,text_slider_response,,,,,,50
,audio-slider-response,25,278802,0.0-5.0-0.4,15,1,2023-07-28 12:48:43,1d0798adfa59f9e8acce3717d57b77cf,,"Mozilla/5.0 (Macintosh; Intel Mac OS X 10_15_7) AppleWebKit/605.1.15 (KHTML, like Gecko) Version/16.5.2 Safari/605.1.15",Macintosh,Safari,16.5.2,OS X,10_15_7,23676,091.mp3,39,audio_slider,,,,,,50
,html-slider-response,26,280789,0.0-5.0-1.4,15,1,2023-07-28 12:48:43,1d0798adfa59f9e8acce3717d57b77cf,,"Mozilla/5.0 (Macintosh; Intel Mac OS X 10_15_7) AppleWebKit/605.1.15 (KHTML, like Gecko) Version/16.5.2 Safari/605.1.15",Macintosh,Safari,16.5.2,OS X,10_15_7,1983,sad?,0,text_slider_response,,,,,,50
,html-slider-response,27,282508,0.0-5.0-2.4,15,1,2023-07-28 12:48:43,1d0798adfa59f9e8acce3717d57b77cf,,"Mozilla/5.0 (Macintosh; Intel Mac OS X 10_15_7) AppleWebKit/605.1.15 (KHTML, like Gecko) Version/16.5.2 Safari/605.1.15",Macintosh,Safari,16.5.2,OS X,10_15_7,1716,tender,0,text_slider_response,,,,,,50
,html-slider-response,28,284357,0.0-5.0-3.4,15,1,2023-07-28 12:48:43,1d0798adfa59f9e8acce3717d57b77cf,,"Mozilla/5.0 (Macintosh; Intel Mac OS X 10_15_7) AppleWebKit/605.1.15 (KHTML, like Gecko) Version/16.5.2 Safari/605.1.15",Macintosh,Safari,16.5.2,OS X,10_15_7,1846,fear,63,text_slider_response,,,,,,50
,html-slider-response,29,287179,0.0-5.0-4.4,15,1,2023-07-28 12:48:43,1d0798adfa59f9e8acce3717d57b77cf,,"Mozilla/5.0 (Macintosh; Intel Mac OS X 10_15_7) AppleWebKit/605.1.15 (KHTML, like Gecko) Version/16.5.2 Safari/605.1.15",Macintosh,Safari,16.5.2,OS X,10_15_7,2820,anger,41,text_slider_response,,,,,,50
,audio-slider-response,30,307057,0.0-5.0-0.5,15,1,2023-07-28 12:48:43,1d0798adfa59f9e8acce3717d57b77cf,,"Mozilla/5.0 (Macintosh; Intel Mac OS X 10_15_7) AppleWebKit/605.1.15 (KHTML, like Gecko) Version/16.5.2 Safari/605.1.15",Macintosh,Safari,16.5.2,OS X,10_15_7,19772,151.mp3,61,audio_slider,,,,,,50
,html-slider-response,31,310271,0.0-5.0-1.5,15,1,2023-07-28 12:48:43,1d0798adfa59f9e8acce3717d57b77cf,,"Mozilla/5.0 (Macintosh; Intel Mac OS X 10_15_7) AppleWebKit/605.1.15 (KHTML, like Gecko) Version/16.5.2 Safari/605.1.15",Macintosh,Safari,16.5.2,OS X,10_15_7,3212,sad?,12,text_slider_response,,,,,,50
,html-slider-response,32,311729,0.0-5.0-2.5,15,1,2023-07-28 12:48:43,1d0798adfa59f9e8acce3717d57b77cf,,"Mozilla/5.0 (Macintosh; Intel Mac OS X 10_15_7) AppleWebKit/605.1.15 (KHTML, like Gecko) Version/16.5.2 Safari/605.1.15",Macintosh,Safari,16.5.2,OS X,10_15_7,1456,tender,62,text_slider_response,,,,,,50
,html-slider-response,33,313773,0.0-5.0-3.5,15,1,2023-07-28 12:48:43,1d0798adfa59f9e8acce3717d57b77cf,,"Mozilla/5.0 (Macintosh; Intel Mac OS X 10_15_7) AppleWebKit/605.1.15 (KHTML, like Gecko) Version/16.5.2 Safari/605.1.15",Macintosh,Safari,16.5.2,OS X,10_15_7,2042,fear,0,text_slider_response,,,,,,50
,html-slider-response,34,315947,0.0-5.0-4.5,15,1,2023-07-28 12:48:43,1d0798adfa59f9e8acce3717d57b77cf,,"Mozilla/5.0 (Macintosh; Intel Mac OS X 10_15_7) AppleWebKit/605.1.15 (KHTML, like Gecko) Version/16.5.2 Safari/605.1.15",Macintosh,Safari,16.5.2,OS X,10_15_7,2171,anger,0,text_slider_response,,,,,,50
true,fullscreen,35,316957,0.0-6.0,15,1,2023-07-28 12:48:43,1d0798adfa59f9e8acce3717d57b77cf,,"Mozilla/5.0 (Macintosh; Intel Mac OS X 10_15_7) AppleWebKit/605.1.15 (KHTML, like Gecko) Version/16.5.2 Safari/605.1.15",Macintosh,Safari,16.5.2,OS X,10_15_7,,,,,,,,,,
true,fullscreen,0,2019,0.0-0.0,19,1,2023-07-28 12:50:31,1d0798adfa59f9e8acce3717d57b77cf,,"Mozilla/5.0 (Windows NT 10.0; Win64; x64) AppleWebKit/537.36 (KHTML, like Gecko) Chrome/115.0.0.0 Safari/537.36",WebKit,Chrome,115.0.0.0,Windows,10.0,,,,,,,,,,
,html-button-response,1,2874,0.0-1.0,19,1,2023-07-28 12:50:31,1d0798adfa59f9e8acce3717d57b77cf,,"Mozilla/5.0 (Windows NT 10.0; Win64; x64) AppleWebKit/537.36 (KHTML, like Gecko) Chrome/115.0.0.0 Safari/537.36",WebKit,Chrome,115.0.0.0,Windows,10.0,854,Welcome to the experiment,0,,,,,,,
,html-button-response,2,3592,0.0-2.0,19,1,2023-07-28 12:50:31,1d0798adfa59f9e8acce3717d57b77cf,,"Mozilla/5.0 (Windows NT 10.0; Win64; x64) AppleWebKit/537.36 (KHTML, like Gecko) Chrome/115.0.0.0 Safari/537.36",WebKit,Chrome,115.0.0.0,Windows,10.0,717,"This study aims to see if musical experience and training affects the induced emotions of nonvocal music.
                      During this study you will be asked to answer questions considering your musical background.
                      
                      Then you will be presented short music clips and asked to rate them according to
                      how strongly they make you feel certain emotions.",0,instruction,,,,,,
,survey-multi-choice,3,33496,0.0-3.0-0.0,19,1,2023-07-28 12:50:31,1d0798adfa59f9e8acce3717d57b77cf,,"Mozilla/5.0 (Windows NT 10.0; Win64; x64) AppleWebKit/537.36 (KHTML, like Gecko) Chrome/115.0.0.0 Safari/537.36",WebKit,Chrome,115.0.0.0,Windows,10.0,29903,,"{""gender"":""Female"",""msi1"":""2"",""msi2"":""0.5"",""msi3"":""2"",""msi4"":""2"",""msi5"":""0""}",multi_choice,"[0,1,2,3,4,5]",,,,,
true,preload,4,33499,0.0-4.0,19,1,2023-07-28 12:50:31,1d0798adfa59f9e8acce3717d57b77cf,,"Mozilla/5.0 (Windows NT 10.0; Win64; x64) AppleWebKit/537.36 (KHTML, like Gecko) Chrome/115.0.0.0 Safari/537.36",WebKit,Chrome,115.0.0.0,Windows,10.0,,,,,,false,[],[],[],
