success,trial_type,trial_index,time_elapsed,internal_node_id,run_id,condition,recorded_at,source_code_version,ip,user_agent,device,browser,browser_version,platform,platform_version,rt,stimulus,response,task,timeout,failed_images,failed_audio,failed_video,question_order
true,fullscreen,0,5846,0.0-0.0,16,1,2023-07-28 12:52:18,b2c816d5360f491c73de124b599fb059,,"Mozilla/5.0 (Windows NT 10.0; Win64; x64) AppleWebKit/537.36 (KHTML, like Gecko) Chrome/114.0.0.0 Safari/537.36",WebKit,Chrome,114.0.0.0,Windows,10.0,,,,,,,,,
,html-button-response,1,8052,0.0-1.0,16,1,2023-07-28 12:52:18,b2c816d5360f491c73de124b599fb059,,"Mozilla/5.0 (Windows NT 10.0; Win64; x64) AppleWebKit/537.36 (KHTML, like Gecko) Chrome/114.0.0.0 Safari/537.36",WebKit,Chrome,114.0.0.0,Windows,10.0,2202,Welcome to the experiment of group 1,0,,,,,,
,html-button-response,2,29075,0.0-2.0,16,1,2023-07-28 12:52:18,b2c816d5360f491c73de124b599fb059,,"Mozilla/5.0 (Windows NT 10.0; Win64; x64) AppleWebKit/537.36 (KHTML, like Gecko) Chrome/114.0.0.0 Safari/537.36",WebKit,Chrome,114.0.0.0,Windows,10.0,21022,"
        <p>In this experiment, you will hear 4 songs playing.</p>
        <p> After each track, you will see an image. You will have 30s to memorise as many items as possible </p>
        <p> Then, you will need to select at most 18 items you remember.</p>",0,instruction,,,,,
true,preload,3,29077,0.0-3.0,16,1,2023-07-28 12:52:18,b2c816d5360f491c73de124b599fb059,,"Mozilla/5.0 (Windows NT 10.0; Win64; x64) AppleWebKit/537.36 (KHTML, like Gecko) Chrome/114.0.0.0 Safari/537.36",WebKit,Chrome,114.0.0.0,Windows,10.0,,,,,false,[],[],[],
,audio-button-response,4,51162,0.0-4.0,16,1,2023-07-28 12:52:18,b2c816d5360f491c73de124b599fb059,,"Mozilla/5.0 (Windows NT 10.0; Win64; x64) AppleWebKit/537.36 (KHTML, like Gecko) Chrome/114.0.0.0 Safari/537.36",WebKit,Chrome,114.0.0.0,Windows,10.0,20829,classic_audio_1.wav,0,audio_button1,,,,,
,image-button-response,5,86193,0.0-5.0,16,1,2023-07-28 12:52:18,b2c816d5360f491c73de124b599fb059,,"Mozilla/5.0 (Windows NT 10.0; Win64; x64) AppleWebKit/537.36 (KHTML, like Gecko) Chrome/114.0.0.0 Safari/537.36",WebKit,Chrome,114.0.0.0,Windows,10.0,35028,image_1.jpg,0,image_button1,,,,,
,survey-multi-select,6,165288,0.0-6.0,16,1,2023-07-28 12:52:18,b2c816d5360f491c73de124b599fb059,,"Mozilla/5.0 (Windows NT 10.0; Win64; x64) AppleWebKit/537.36 (KHTML, like Gecko) Chrome/114.0.0.0 Safari/537.36",WebKit,Chrome,114.0.0.0,Windows,10.0,79082,,"{""image_response1"":[""Courgette"",""Potato"",""Bread"",""Donut"",""Lemon"",""Orange"",""Raspberry"",""Strawberry"",""Cucumber"",""Pommegranate"",""Tomato"",""Croissant"",""Fries"",""Salmon""]}",multi_select1,,,,,[0]
,audio-button-response,7,187187,0.0-7.0,16,1,2023-07-28 12:52:18,b2c816d5360f491c73de124b599fb059,,"Mozilla/5.0 (Windows NT 10.0; Win64; x64) AppleWebKit/537.36 (KHTML, like Gecko) Chrome/114.0.0.0 Safari/537.36",WebKit,Chrome,114.0.0.0,Windows,10.0,20320,metal_audio_1.wav,0,audio_button2,,,,,
,image-button-response,8,220259,0.0-8.0,16,1,2023-07-28 12:52:18,b2c816d5360f491c73de124b599fb059,,"Mozilla/5.0 (Windows NT 10.0; Win64; x64) AppleWebKit/537.36 (KHTML, like Gecko) Chrome/114.0.0.0 Safari/537.36",WebKit,Chrome,114.0.0.0,Windows,10.0,33071,image_2.jpg,0,image_button2,,,,,
,survey-multi-select,9,252961,0.0-9.0,16,1,2023-07-28 12:52:18,b2c816d5360f491c73de124b599fb059,,"Mozilla/5.0 (Windows NT 10.0; Win64; x64) AppleWebKit/537.36 (KHTML, like Gecko) Chrome/114.0.0.0 Safari/537.36",WebKit,Chrome,114.0.0.0,Windows,10.0,32691,,"{""image_response2"":[""Bee"",""Fire"",""Volcano"",""Lion"",""Polar bear"",""Parrot"",""Helicopter"",""Moon"",""Butterfly""]}",multi_select2,,,,,[0]
,audio-button-response,10,272392,0.0-10.0,16,1,2023-07-28 12:52:18,b2c816d5360f491c73de124b599fb059,,"Mozilla/5.0 (Windows NT 10.0; Win64; x64) AppleWebKit/537.36 (KHTML, like Gecko) Chrome/114.0.0.0 Safari/537.36",WebKit,Chrome,114.0.0.0,Windows,10.0,18080,metal_audio_2.wav,0,audio_button3,,,,,
,image-button-response,11,304668,0.0-11.0,16,1,2023-07-28 12:52:18,b2c816d5360f491c73de124b599fb059,,"Mozilla/5.0 (Windows NT 10.0; Win64; x64) AppleWebKit/537.36 (KHTML, like Gecko) Chrome/114.0.0.0 Safari/537.36",WebKit,Chrome,114.0.0.0,Windows,10.0,32273,image_3.jpg,0,image_button3,,,,,
,survey-multi-select,12,340329,0.0-12.0,16,1,2023-07-28 12:52:18,b2c816d5360f491c73de124b599fb059,,"Mozilla/5.0 (Windows NT 10.0; Win64; x64) AppleWebKit/537.36 (KHTML, like Gecko) Chrome/114.0.0.0 Safari/537.36",WebKit,Chrome,114.0.0.0,Windows,10.0,35652,,"{""image_response3"":[""Heart"",""Liver"",""Bone"",""Muscle"",""Stethoscope"",""Brain"",""Medication"",""Coat"",""Vaccin"",""Blood"",""Gloves"",""Alcohol"",""Wheelchair"",""Hospital"",""Virus""]}",multi_select3,,,,,[0]
,audio-button-response,13,365422,0.0-13.0,16,1,2023-07-28 12:52:18,b2c816d5360f491c73de124b599fb059,,"Mozilla/5.0 (Windows NT 10.0; Win64; x64) AppleWebKit/537.36 (KHTML, like Gecko) Chrome/114.0.0.0 Safari/537.36",WebKit,Chrome,114.0.0.0,Windows,10.0,23760,classic_audio_2.wav,0,audio_button4,,,,,
,image-button-response,14,398871,0.0-14.0,16,1,2023-07-28 12:52:18,b2c816d5360f491c73de124b599fb059,,"Mozilla/5.0 (Windows NT 10.0; Win64; x64) AppleWebKit/537.36 (KHTML, like Gecko) Chrome/114.0.0.0 Safari/537.36",WebKit,Chrome,114.0.0.0,Windows,10.0,33447,image_4.jpg,0,image_button4,,,,,
,survey-multi-select,15,450017,0.0-15.0,16,1,2023-07-28 12:52:18,b2c816d5360f491c73de124b599fb059,,"Mozilla/5.0 (Windows NT 10.0; Win64; x64) AppleWebKit/537.36 (KHTML, like Gecko) Chrome/114.0.0.0 Safari/537.36",WebKit,Chrome,114.0.0.0,Windows,10.0,51137,,"{""image_response4"":[""Desk"",""Spatula"",""Washing machine"",""Lamp"",""Tape"",""Bottle"",""Glass"",""Mixer"",""Mirror"",""Curtains"",""Pillow""]}",multi_select4,,,,,[0]
true,fullscreen,16,451022,0.0-16.0,16,1,2023-07-28 12:52:18,b2c816d5360f491c73de124b599fb059,,"Mozilla/5.0 (Windows NT 10.0; Win64; x64) AppleWebKit/537.36 (KHTML, like Gecko) Chrome/114.0.0.0 Safari/537.36",WebKit,Chrome,114.0.0.0,Windows,10.0,,,,,,,,,
,html-keyboard-response,17,628482,0.0-17.0,16,1,2023-07-28 12:52:18,b2c816d5360f491c73de124b599fb059,,"Mozilla/5.0 (Windows NT 10.0; Win64; x64) AppleWebKit/537.36 (KHTML, like Gecko) Chrome/114.0.0.0 Safari/537.36",WebKit,Chrome,114.0.0.0,Windows,10.0,177457,Thank you for your participation. You may now close the window.,enter,,,,,,
true,fullscreen,0,5148,0.0-0.0,4,1,2023-07-28 12:38:04,b2c816d5360f491c73de124b599fb059,,"Mozilla/5.0 (Macintosh; Intel Mac OS X 10_15_7) AppleWebKit/537.36 (KHTML, like Gecko) Chrome/114.0.0.0 Safari/537.36",Macintosh,Chrome,114.0.0.0,OS X,10_15_7,,,,,,,,,
,html-button-response,1,6251,0.0-1.0,4,1,2023-07-28 12:38:04,b2c816d5360f491c73de124b599fb059,,"Mozilla/5.0 (Macintosh; Intel Mac OS X 10_15_7) AppleWebKit/537.36 (KHTML, like Gecko) Chrome/114.0.0.0 Safari/537.36",Macintosh,Chrome,114.0.0.0,OS X,10_15_7,1101,Welcome to the experiment of group 1,0,,,,,,
,html-button-response,2,31286,0.0-2.0,4,1,2023-07-28 12:38:04,b2c816d5360f491c73de124b599fb059,,"Mozilla/5.0 (Macintosh; Intel Mac OS X 10_15_7) AppleWebKit/537.36 (KHTML, like Gecko) Chrome/114.0.0.0 Safari/537.36",Macintosh,Chrome,114.0.0.0,OS X,10_15_7,25034,"
        <p>In this experiment, you will hear 4 songs playing.</p>
        <p> After each track, you will see an image. You will have 30s to memorise as many items as possible </p>
        <p> Then, you will need to select at most 18 items you remember.</p>",0,instruction,,,,,
true,preload,3,31287,0.0-3.0,4,1,2023-07-28 12:38:04,b2c816d5360f491c73de124b599fb059,,"Mozilla/5.0 (Macintosh; Intel Mac OS X 10_15_7) AppleWebKit/537.36 (KHTML, like Gecko) Chrome/114.0.0.0 Safari/537.36",Macintosh,Chrome,114.0.0.0,OS X,10_15_7,,,,,false,[],[],[],
,audio-button-response,4,47470,0.0-4.0,4,1,2023-07-28 12:38:04,b2c816d5360f491c73de124b599fb059,,"Mozilla/5.0 (Macintosh; Intel Mac OS X 10_15_7) AppleWebKit/537.36 (KHTML, like Gecko) Chrome/114.0.0.0 Safari/537.36",Macintosh,Chrome,114.0.0.0,OS X,10_15_7,15883,classic_audio_1.wav,0,audio_button1,,,,,
,image-button-response,5,79921,0.0-5.0,4,1,2023-07-28 12:38:04,b2c816d5360f491c73de124b599fb059,,"Mozilla/5.0 (Macintosh; Intel Mac OS X 10_15_7) AppleWebKit/537.36 (KHTML, like Gecko) Chrome/114.0.0.0 Safari/537.36",Macintosh,Chrome,114.0.0.0,OS X,10_15_7,32448,image_1.jpg,0,image_button1,,,,,
,survey-multi-select,6,115531,0.0-6.0,4,1,2023-07-28 12:38:04,b2c816d5360f491c73de124b599fb059,,"Mozilla/5.0 (Macintosh; Intel Mac OS X 10_15_7) AppleWebKit/537.36 (KHTML, like Gecko) Chrome/114.0.0.0 Safari/537.36",Macintosh,Chrome,114.0.0.0,OS X,10_15_7,35599,,"{""image_response1"":[""Courgette"",""Potato"",""Bread"",""Donut"",""Lemon"",""Strawberry"",""Aubergine"",""Cucumber"",""Pommegranate"",""Apple"",""Tomato"",""Croissant"",""Fries"",""Salmon"",""Bell pepper""]}",multi_select1,,,,,[0]
,audio-button-response,7,132066,0.0-7.0,4,1,2023-07-28 12:38:04,b2c816d5360f491c73de124b599fb059,,"Mozilla/5.0 (Macintosh; Intel Mac OS X 10_15_7) AppleWebKit/537.36 (KHTML, like Gecko) Chrome/114.0.0.0 Safari/537.36",Macintosh,Chrome,114.0.0.0,OS X,10_15_7,16299,metal_audio_1.wav,0,audio_button2,,,,,
,image-button-response,8,164448,0.0-8.0,4,1,2023-07-28 12:38:04,b2c816d5360f491c73de124b599fb059,,"Mozilla/5.0 (Macintosh; Intel Mac OS X 10_15_7) AppleWebKit/537.36 (KHTML, like Gecko) Chrome/114.0.0.0 Safari/537.36",Macintosh,Chrome,114.0.0.0,OS X,10_15_7,32380,image_2.jpg,0,image_button2,,,,,
,survey-multi-select,9,206255,0.0-9.0,4,1,2023-07-28 12:38:04,b2c816d5360f491c73de124b599fb059,,"Mozilla/5.0 (Macintosh; Intel Mac OS X 10_15_7) AppleWebKit/537.36 (KHTML, like Gecko) Chrome/114.0.0.0 Safari/537.36",Macintosh,Chrome,114.0.0.0,OS X,10_15_7,41799,,"{""image_response2"":[""Clownfish"",""Fire"",""Flower"",""Elephant"",""Volcano"",""Lion"",""Polar bear"",""Rainbow"",""Parrot"",""Helicopter"",""Moon"",""Tree"",""Dolphin"",""Butterfly""]}",multi_select2,,,,,[0]
,audio-button-response,10,224772,0.0-10.0,4,1,2023-07-28 12:38:04,b2c816d5360f491c73de124b599fb059,,"Mozilla/5.0 (Macintosh; Intel Mac OS X 10_15_7) AppleWebKit/537.36 (KHTML, like Gecko) Chrome/114.0.0.0 Safari/537.36",Macintosh,Chrome,114.0.0.0,OS X,10_15_7,18341,metal_audio_2.wav,0,audio_button3,,,,,
,image-button-response,11,257301,0.0-11.0,4,1,2023-07-28 12:38:04,b2c816d5360f491c73de124b599fb059,,"Mozilla/5.0 (Macintosh; Intel Mac OS X 10_15_7) AppleWebKit/537.36 (KHTML, like Gecko) Chrome/114.0.0.0 Safari/537.36",Macintosh,Chrome,114.0.0.0,OS X,10_15_7,32527,image_3.jpg,0,image_button3,,,,,
,survey-multi-select,12,302545,0.0-12.0,4,1,2023-07-28 12:38:04,b2c816d5360f491c73de124b599fb059,,"Mozilla/5.0 (Macintosh; Intel Mac OS X 10_15_7) AppleWebKit/537.36 (KHTML, like Gecko) Chrome/114.0.0.0 Safari/537.36",Macintosh,Chrome,114.0.0.0,OS X,10_15_7,45236,,"{""image_response3"":[""Heart"",""Liver"",""Bone"",""Muscle"",""Stethoscope"",""Brain"",""Medication"",""Vaccin"",""Blood"",""Gloves"",""Injury"",""Coffee"",""Scissors"",""Alcohol"",""Wheelchair"",""Hospital"",""Virus""]}",multi_select3,,,,,[0]
,audio-button-response,13,319566,0.0-13.0,4,1,2023-07-28 12:38:04,b2c816d5360f491c73de124b599fb059,,"Mozilla/5.0 (Macintosh; Intel Mac OS X 10_15_7) AppleWebKit/537.36 (KHTML, like Gecko) Chrome/114.0.0.0 Safari/537.36",Macintosh,Chrome,114.0.0.0,OS X,10_15_7,16848,classic_audio_2.wav,0,audio_button4,,,,,
,image-button-response,14,353075,0.0-14.0,4,1,2023-07-28 12:38:04,b2c816d5360f491c73de124b599fb059,,"Mozilla/5.0 (Macintosh; Intel Mac OS X 10_15_7) AppleWebKit/537.36 (KHTML, like Gecko) Chrome/114.0.0.0 Safari/537.36",Macintosh,Chrome,114.0.0.0,OS X,10_15_7,33507,image_4.jpg,0,image_button4,,,,,
,survey-multi-select,15,383143,0.0-15.0,4,1,2023-07-28 12:38:04,b2c816d5360f491c73de124b599fb059,,"Mozilla/5.0 (Macintosh; Intel Mac OS X 10_15_7) AppleWebKit/537.36 (KHTML, like Gecko) Chrome/114.0.0.0 Safari/537.36",Macintosh,Chrome,114.0.0.0,OS X,10_15_7,30059,,"{""image_response4"":[""Bed"",""Desk"",""Cutlery"",""Toilet"",""Lamp"",""Sink"",""Glass"",""Mixer"",""Mirror"",""Curtains"",""Blanket"",""Pillow""]}",multi_select4,,,,,[0]
true,fullscreen,16,384154,0.0-16.0,4,1,2023-07-28 12:38:04,b2c816d5360f491c73de124b599fb059,,"Mozilla/5.0 (Macintosh; Intel Mac OS X 10_15_7) AppleWebKit/537.36 (KHTML, like Gecko) Chrome/114.0.0.0 Safari/537.36",Macintosh,Chrome,114.0.0.0,OS X,10_15_7,,,,,,,,,
,html-keyboard-response,17,398521,0.0-17.0,4,1,2023-07-28 12:38:04,b2c816d5360f491c73de124b599fb059,,"Mozilla/5.0 (Macintosh; Intel Mac OS X 10_15_7) AppleWebKit/537.36 (KHTML, like Gecko) Chrome/114.0.0.0 Safari/537.36",Macintosh,Chrome,114.0.0.0,OS X,10_15_7,14364,Thank you for your participation. You may now close the window.,meta,,,,,,
true,fullscreen,0,2443,0.0-0.0,14,1,2023-07-28 12:40:41,b2c816d5360f491c73de124b599fb059,,"Mozilla/5.0 (Macintosh; Intel Mac OS X 10_15_7) AppleWebKit/605.1.15 (KHTML, like Gecko) Version/15.4 Safari/605.1.15",Macintosh,Safari,15.4,OS X,10_15_7,,,,,,,,,
,html-button-response,1,3495,0.0-1.0,14,1,2023-07-28 12:40:41,b2c816d5360f491c73de124b599fb059,,"Mozilla/5.0 (Macintosh; Intel Mac OS X 10_15_7) AppleWebKit/605.1.15 (KHTML, like Gecko) Version/15.4 Safari/605.1.15",Macintosh,Safari,15.4,OS X,10_15_7,1046,Welcome to the experiment of group 1,0,,,,,,
,html-button-response,2,4744,0.0-2.0,14,1,2023-07-28 12:40:41,b2c816d5360f491c73de124b599fb059,,"Mozilla/5.0 (Macintosh; Intel Mac OS X 10_15_7) AppleWebKit/605.1.15 (KHTML, like Gecko) Version/15.4 Safari/605.1.15",Macintosh,Safari,15.4,OS X,10_15_7,1248,"
        <p>In this experiment, you will hear 4 songs playing.</p>
        <p> After each track, you will see an image. You will have 30s to memorise as many items as possible </p>
        <p> Then, you will need to select at most 18 items you remember.</p>",0,instruction,,,,,
true,preload,3,4746,0.0-3.0,14,1,2023-07-28 12:40:41,b2c816d5360f491c73de124b599fb059,,"Mozilla/5.0 (Macintosh; Intel Mac OS X 10_15_7) AppleWebKit/605.1.15 (KHTML, like Gecko) Version/15.4 Safari/605.1.15",Macintosh,Safari,15.4,OS X,10_15_7,,,,,false,[],[],[],
,audio-button-response,4,22347,0.0-4.0,14,1,2023-07-28 12:40:41,b2c816d5360f491c73de124b599fb059,,"Mozilla/5.0 (Macintosh; Intel Mac OS X 10_15_7) AppleWebKit/605.1.15 (KHTML, like Gecko) Version/15.4 Safari/605.1.15",Macintosh,Safari,15.4,OS X,10_15_7,17218,classic_audio_1.wav,0,audio_button1,,,,,
,image-button-response,5,56828,0.0-5.0,14,1,2023-07-28 12:40:41,b2c816d5360f491c73de124b599fb059,,"Mozilla/5.0 (Macintosh; Intel Mac OS X 10_15_7) AppleWebKit/605.1.15 (KHTML, like Gecko) Version/15.4 Safari/605.1.15",Macintosh,Safari,15.4,OS X,10_15_7,34479,image_1.jpg,0,image_button1,,,,,
,survey-multi-select,6,83114,0.0-6.0,14,1,2023-07-28 12:40:41,b2c816d5360f491c73de124b599fb059,,"Mozilla/5.0 (Macintosh; Intel Mac OS X 10_15_7) AppleWebKit/605.1.15 (KHTML, like Gecko) Version/15.4 Safari/605.1.15",Macintosh,Safari,15.4,OS X,10_15_7,26278,,"{""image_response1"":[""Chocolate"",""Potato"",""Bread"",""Donut"",""Aubergine"",""Cucumber"",""Apple"",""Tomato"",""Croissant"",""Watermelon"",""Fries"",""Crisps""]}",multi_select1,,,,,[0]
,audio-button-response,7,100539,0.0-7.0,14,1,2023-07-28 12:40:41,b2c816d5360f491c73de124b599fb059,,"Mozilla/5.0 (Macintosh; Intel Mac OS X 10_15_7) AppleWebKit/605.1.15 (KHTML, like Gecko) Version/15.4 Safari/605.1.15",Macintosh,Safari,15.4,OS X,10_15_7,16689,metal_audio_1.wav,0,audio_button2,,,,,
,image-button-response,8,131892,0.0-8.0,14,1,2023-07-28 12:40:41,b2c816d5360f491c73de124b599fb059,,"Mozilla/5.0 (Macintosh; Intel Mac OS X 10_15_7) AppleWebKit/605.1.15 (KHTML, like Gecko) Version/15.4 Safari/605.1.15",Macintosh,Safari,15.4,OS X,10_15_7,31349,image_2.jpg,0,image_button2,,,,,
,survey-multi-select,9,157992,0.0-9.0,14,1,2023-07-28 12:40:41,b2c816d5360f491c73de124b599fb059,,"Mozilla/5.0 (Macintosh; Intel Mac OS X 10_15_7) AppleWebKit/605.1.15 (KHTML, like Gecko) Version/15.4 Safari/605.1.15",Macintosh,Safari,15.4,OS X,10_15_7,26094,,"{""image_response2"":[""Bee"",""Flower"",""Elephant"",""Volcano"",""Polar bear"",""Rainbow"",""Parrot"",""Helicopter"",""Thunder"",""Boat"",""Moon"",""Tree"",""Dolphin"",""Butterfly""]}",multi_select2,,,,,[0]
,audio-button-response,10,175438,0.0-10.0,14,1,2023-07-28 12:40:41,b2c816d5360f491c73de124b599fb059,,"Mozilla/5.0 (Macintosh; Intel Mac OS X 10_15_7) AppleWebKit/605.1.15 (KHTML, like Gecko) Version/15.4 Safari/605.1.15",Macintosh,Safari,15.4,OS X,10_15_7,16849,metal_audio_2.wav,0,audio_button3,,,,,
,image-button-response,11,206754,0.0-11.0,14,1,2023-07-28 12:40:41,b2c816d5360f491c73de124b599fb059,,"Mozilla/5.0 (Macintosh; Intel Mac OS X 10_15_7) AppleWebKit/605.1.15 (KHTML, like Gecko) Version/15.4 Safari/605.1.15",Macintosh,Safari,15.4,OS X,10_15_7,31314,image_3.jpg,0,image_button3,,,,,
,survey-multi-select,12,249508,0.0-12.0,14,1,2023-07-28 12:40:41,b2c816d5360f491c73de124b599fb059,,"Mozilla/5.0 (Macintosh; Intel Mac OS X 10_15_7) AppleWebKit/605.1.15 (KHTML, like Gecko) Version/15.4 Safari/605.1.15",Macintosh,Safari,15.4,OS X,10_15_7,42746,,"{""image_response3"":[""Heart"",""Liver"",""Bone"",""Brain"",""Bladder"",""Medication"",""Gloves"",""Injury"",""Coffee"",""Alcohol"",""Wheelchair"",""Hospital"",""Virus""]}",multi_select3,,,,,[0]
,audio-button-response,13,268107,0.0-13.0,14,1,2023-07-28 12:40:41,b2c816d5360f491c73de124b599fb059,,"Mozilla/5.0 (Macintosh; Intel Mac OS X 10_15_7) AppleWebKit/605.1.15 (KHTML, like Gecko) Version/15.4 Safari/605.1.15",Macintosh,Safari,15.4,OS X,10_15_7,16820,classic_audio_2.wav,0,audio_button4,,,,,
,image-button-response,14,299258,0.0-14.0,14,1,2023-07-28 12:40:41,b2c816d5360f491c73de124b599fb059,,"Mozilla/5.0 (Macintosh; Intel Mac OS X 10_15_7) AppleWebKit/605.1.15 (KHTML, like Gecko) Version/15.4 Safari/605.1.15",Macintosh,Safari,15.4,OS X,10_15_7,31149,image_4.jpg,0,image_button4,,,,,
,survey-multi-select,15,333213,0.0-15.0,14,1,2023-07-28 12:40:41,b2c816d5360f491c73de124b599fb059,,"Mozilla/5.0 (Macintosh; Intel Mac OS X 10_15_7) AppleWebKit/605.1.15 (KHTML, like Gecko) Version/15.4 Safari/605.1.15",Macintosh,Safari,15.4,OS X,10_15_7,34013,,"{""image_response4"":[""Bed"",""Spatula"",""Lamp"",""Pan"",""Tape"",""Bottle"",""Mixer"",""Blanket"",""Pillow""]}",multi_select4,,,,,[0]
true,fullscreen,16,334219,0.0-16.0,14,1,2023-07-28 12:40:41,b2c816d5360f491c73de124b599fb059,,"Mozilla/5.0 (Macintosh; Intel Mac OS X 10_15_7) AppleWebKit/605.1.15 (KHTML, like Gecko) Version/15.4 Safari/605.1.15",Macintosh,Safari,15.4,OS X,10_15_7,,,,,,,,,
,html-keyboard-response,17,365172,0.0-17.0,14,1,2023-07-28 12:40:41,b2c816d5360f491c73de124b599fb059,,"Mozilla/5.0 (Macintosh; Intel Mac OS X 10_15_7) AppleWebKit/605.1.15 (KHTML, like Gecko) Version/15.4 Safari/605.1.15",Macintosh,Safari,15.4,OS X,10_15_7,30948,Thank you for your participation. You may now close the window.,escape,,,,,,
true,fullscreen,0,3425,0.0-0.0,11,1,2023-07-28 12:38:53,b2c816d5360f491c73de124b599fb059,,"Mozilla/5.0 (Macintosh; Intel Mac OS X 10_15_7) AppleWebKit/537.36 (KHTML, like Gecko) Chrome/115.0.0.0 Safari/537.36",Macintosh,Chrome,115.0.0.0,OS X,10_15_7,,,,,,,,,
,html-button-response,1,4633,0.0-1.0,11,1,2023-07-28 12:38:53,b2c816d5360f491c73de124b599fb059,,"Mozilla/5.0 (Macintosh; Intel Mac OS X 10_15_7) AppleWebKit/537.36 (KHTML, like Gecko) Chrome/115.0.0.0 Safari/537.36",Macintosh,Chrome,115.0.0.0,OS X,10_15_7,1204,Welcome to the experiment of group 1,0,,,,,,
,html-button-response,2,14095,0.0-2.0,11,1,2023-07-28 12:38:53,b2c816d5360f491c73de124b599fb059,,"Mozilla/5.0 (Macintosh; Intel Mac OS X 10_15_7) AppleWebKit/537.36 (KHTML, like Gecko) Chrome/115.0.0.0 Safari/537.36",Macintosh,Chrome,115.0.0.0,OS X,10_15_7,9460,"
        <p>In this experiment, you will hear 4 songs playing.</p>
        <p> After each track, you will see an image. You will have 30s to memorise as many items as possible </p>
        <p> Then, you will need to select at most 18 items you remember.</p>",0,instruction,,,,,
true,preload,3,14096,0.0-3.0,11,1,2023-07-28 12:38:53,b2c816d5360f491c73de124b599fb059,,"Mozilla/5.0 (Macintosh; Intel Mac OS X 10_15_7) AppleWebKit/537.36 (KHTML, like Gecko) Chrome/115.0.0.0 Safari/537.36",Macintosh,Chrome,115.0.0.0,OS X,10_15_7,,,,,false,[],[],[],
,audio-button-response,4,35097,0.0-4.0,11,1,2023-07-28 12:38:53,b2c816d5360f491c73de124b599fb059,,"Mozilla/5.0 (Macintosh; Intel Mac OS X 10_15_7) AppleWebKit/537.36 (KHTML, like Gecko) Chrome/115.0.0.0 Safari/537.36",Macintosh,Chrome,115.0.0.0,OS X,10_15_7,19312,classic_audio_1.wav,0,audio_button1,,,,,
,image-button-response,5,60066,0.0-5.0,11,1,2023-07-28 12:38:53,b2c816d5360f491c73de124b599fb059,,"Mozilla/5.0 (Macintosh; Intel Mac OS X 10_15_7) AppleWebKit/537.36 (KHTML, like Gecko) Chrome/115.0.0.0 Safari/537.36",Macintosh,Chrome,115.0.0.0,OS X,10_15_7,24966,image_1.jpg,0,image_button1,,,,,
,survey-multi-select,6,99554,0.0-6.0,11,1,2023-07-28 12:38:53,b2c816d5360f491c73de124b599fb059,,"Mozilla/5.0 (Macintosh; Intel Mac OS X 10_15_7) AppleWebKit/537.36 (KHTML, like Gecko) Chrome/115.0.0.0 Safari/537.36",Macintosh,Chrome,115.0.0.0,OS X,10_15_7,39474,,"{""image_response1"":[""Bread"",""Donut"",""Orange"",""Raspberry"",""Strawberry"",""Cucumber"",""Pommegranate"",""Tomato"",""Salmon""]}",multi_select1,,,,,[0]
,audio-button-response,7,118233,0.0-7.0,11,1,2023-07-28 12:38:53,b2c816d5360f491c73de124b599fb059,,"Mozilla/5.0 (Macintosh; Intel Mac OS X 10_15_7) AppleWebKit/537.36 (KHTML, like Gecko) Chrome/115.0.0.0 Safari/537.36",Macintosh,Chrome,115.0.0.0,OS X,10_15_7,17104,metal_audio_1.wav,0,audio_button2,,,,,
,image-button-response,8,142625,0.0-8.0,11,1,2023-07-28 12:38:53,b2c816d5360f491c73de124b599fb059,,"Mozilla/5.0 (Macintosh; Intel Mac OS X 10_15_7) AppleWebKit/537.36 (KHTML, like Gecko) Chrome/115.0.0.0 Safari/537.36",Macintosh,Chrome,115.0.0.0,OS X,10_15_7,24390,image_2.jpg,0,image_button2,,,,,
,survey-multi-select,9,188936,0.0-9.0,11,1,2023-07-28 12:38:53,b2c816d5360f491c73de124b599fb059,,"Mozilla/5.0 (Macintosh; Intel Mac OS X 10_15_7) AppleWebKit/537.36 (KHTML, like Gecko) Chrome/115.0.0.0 Safari/537.36",Macintosh,Chrome,115.0.0.0,OS X,10_15_7,46300,,"{""image_response2"":[""Clownfish"",""Elephant"",""Volcano"",""Lion"",""Rainbow"",""Parrot"",""Helicopter"",""Thunder"",""Boat"",""Dolphin"",""Ant""]}",multi_select2,,,,,[0]
,audio-button-response,10,208272,0.0-10.0,11,1,2023-07-28 12:38:53,b2c816d5360f491c73de124b599fb059,,"Mozilla/5.0 (Macintosh; Intel Mac OS X 10_15_7) AppleWebKit/537.36 (KHTML, like Gecko) Chrome/115.0.0.0 Safari/537.36",Macintosh,Chrome,115.0.0.0,OS X,10_15_7,17696,metal_audio_2.wav,0,audio_button3,,,,,
,image-button-response,11,219289,0.0-11.0,11,1,2023-07-28 12:38:53,b2c816d5360f491c73de124b599fb059,,"Mozilla/5.0 (Macintosh; Intel Mac OS X 10_15_7) AppleWebKit/537.36 (KHTML, like Gecko) Chrome/115.0.0.0 Safari/537.36",Macintosh,Chrome,115.0.0.0,OS X,10_15_7,11015,image_3.jpg,0,image_button3,,,,,
,survey-multi-select,12,246442,0.0-12.0,11,1,2023-07-28 12:38:53,b2c816d5360f491c73de124b599fb059,,"Mozilla/5.0 (Macintosh; Intel Mac OS X 10_15_7) AppleWebKit/537.36 (KHTML, like Gecko) Chrome/115.0.0.0 Safari/537.36",Macintosh,Chrome,115.0.0.0,OS X,10_15_7,27143,,"{""image_response3"":[""Heart"",""Liver"",""Bone"",""Muscle"",""Stethoscope"",""Medication"",""Coat"",""Injury"",""EEG"",""Virus""]}",multi_select3,,,,,[0]
,audio-button-response,13,264761,0.0-13.0,11,1,2023-07-28 12:38:53,b2c816d5360f491c73de124b599fb059,,"Mozilla/5.0 (Macintosh; Intel Mac OS X 10_15_7) AppleWebKit/537.36 (KHTML, like Gecko) Chrome/115.0.0.0 Safari/537.36",Macintosh,Chrome,115.0.0.0,OS X,10_15_7,16912,classic_audio_2.wav,0,audio_button4,,,,,
,image-button-response,14,279725,0.0-14.0,11,1,2023-07-28 12:38:53,b2c816d5360f491c73de124b599fb059,,"Mozilla/5.0 (Macintosh; Intel Mac OS X 10_15_7) AppleWebKit/537.36 (KHTML, like Gecko) Chrome/115.0.0.0 Safari/537.36",Macintosh,Chrome,115.0.0.0,OS X,10_15_7,14961,image_4.jpg,0,image_button4,,,,,
,survey-multi-select,15,296187,0.0-15.0,11,1,2023-07-28 12:38:53,b2c816d5360f491c73de124b599fb059,,"Mozilla/5.0 (Macintosh; Intel Mac OS X 10_15_7) AppleWebKit/537.36 (KHTML, like Gecko) Chrome/115.0.0.0 Safari/537.36",Macintosh,Chrome,115.0.0.0,OS X,10_15_7,16453,,"{""image_response4"":[""Bed"",""Cutlery"",""Lamp"",""Pan"",""Pot"",""Bottle"",""Glass"",""Pillow""]}",multi_select4,,,,,[0]
true,fullscreen,0,2830,0.0-0.0,12,1,2023-07-28 12:39:05,b2c816d5360f491c73de124b599fb059,,Mozilla/5.0 (Macintosh; Intel Mac OS X 10.15; rv:109.0) Gecko/20100101 Firefox/114.0,Macintosh,Firefox,114.0,OS X,10.15,,,,,,,,,
,html-button-response,1,5460,0.0-1.0,12,1,2023-07-28 12:39:05,b2c816d5360f491c73de124b599fb059,,Mozilla/5.0 (Macintosh; Intel Mac OS X 10.15; rv:109.0) Gecko/20100101 Firefox/114.0,Macintosh,Firefox,114.0,OS X,10.15,2624,Welcome to the experiment of group 1,0,,,,,,
,html-button-response,2,16237,0.0-2.0,12,1,2023-07-28 12:39:05,b2c816d5360f491c73de124b599fb059,,Mozilla/5.0 (Macintosh; Intel Mac OS X 10.15; rv:109.0) Gecko/20100101 Firefox/114.0,Macintosh,Firefox,114.0,OS X,10.15,10775,"
        <p>In this experiment, you will hear 4 songs playing.</p>
        <p> After each track, you will see an image. You will have 30s to memorise as many items as possible </p>
        <p> Then, you will need to select at most 18 items you remember.</p>",0,instruction,,,,,
true,preload,3,16238,0.0-3.0,12,1,2023-07-28 12:39:05,b2c816d5360f491c73de124b599fb059,,Mozilla/5.0 (Macintosh; Intel Mac OS X 10.15; rv:109.0) Gecko/20100101 Firefox/114.0,Macintosh,Firefox,114.0,OS X,10.15,,,,,false,[],[],[],
,audio-button-response,4,32662,0.0-4.0,12,1,2023-07-28 12:39:05,b2c816d5360f491c73de124b599fb059,,Mozilla/5.0 (Macintosh; Intel Mac OS X 10.15; rv:109.0) Gecko/20100101 Firefox/114.0,Macintosh,Firefox,114.0,OS X,10.15,16149,classic_audio_1.wav,0,audio_button1,,,,,
,image-button-response,5,69039,0.0-5.0,12,1,2023-07-28 12:39:05,b2c816d5360f491c73de124b599fb059,,Mozilla/5.0 (Macintosh; Intel Mac OS X 10.15; rv:109.0) Gecko/20100101 Firefox/114.0,Macintosh,Firefox,114.0,OS X,10.15,36373,image_1.jpg,0,image_button1,,,,,
,survey-multi-select,6,96114,0.0-6.0,12,1,2023-07-28 12:39:05,b2c816d5360f491c73de124b599fb059,,Mozilla/5.0 (Macintosh; Intel Mac OS X 10.15; rv:109.0) Gecko/20100101 Firefox/114.0,Macintosh,Firefox,114.0,OS X,10.15,27059,,"{""image_response1"":[""Courgette"",""Potato"",""Bread"",""Donut"",""Lemon"",""Orange"",""Raspberry"",""Strawberry"",""Aubergine"",""Cucumber"",""Pommegranate"",""Apple"",""Tomato"",""Croissant"",""Fries"",""Salmon"",""Bell pepper""]}",multi_select1,,,,,[0]
,audio-button-response,7,112785,0.0-7.0,12,1,2023-07-28 12:39:05,b2c816d5360f491c73de124b599fb059,,Mozilla/5.0 (Macintosh; Intel Mac OS X 10.15; rv:109.0) Gecko/20100101 Firefox/114.0,Macintosh,Firefox,114.0,OS X,10.15,16498,metal_audio_1.wav,0,audio_button2,,,,,
,image-button-response,8,144204,0.0-8.0,12,1,2023-07-28 12:39:05,b2c816d5360f491c73de124b599fb059,,Mozilla/5.0 (Macintosh; Intel Mac OS X 10.15; rv:109.0) Gecko/20100101 Firefox/114.0,Macintosh,Firefox,114.0,OS X,10.15,31415,image_2.jpg,0,image_button2,,,,,
,survey-multi-select,9,173362,0.0-9.0,12,1,2023-07-28 12:39:05,b2c816d5360f491c73de124b599fb059,,Mozilla/5.0 (Macintosh; Intel Mac OS X 10.15; rv:109.0) Gecko/20100101 Firefox/114.0,Macintosh,Firefox,114.0,OS X,10.15,29148,,"{""image_response2"":[""Clownfish"",""Bee"",""Fire"",""Flower"",""Elephant"",""Volcano"",""Lion"",""Polar bear"",""Rainbow"",""Parrot"",""Helicopter"",""Boat"",""Moon"",""Tree"",""Dolphin"",""Butterfly"",""Ant""]}",multi_select2,,,,,[0]
,audio-button-response,10,190789,0.0-10.0,12,1,2023-07-28 12:39:05,b2c816d5360f491c73de124b599fb059,,Mozilla/5.0 (Macintosh; Intel Mac OS X 10.15; rv:109.0) Gecko/20100101 Firefox/114.0,Macintosh,Firefox,114.0,OS X,10.15,17252,metal_audio_2.wav,0,audio_button3,,,,,
,image-button-response,11,221910,0.0-11.0,12,1,2023-07-28 12:39:05,b2c816d5360f491c73de124b599fb059,,Mozilla/5.0 (Macintosh; Intel Mac OS X 10.15; rv:109.0) Gecko/20100101 Firefox/114.0,Macintosh,Firefox,114.0,OS X,10.15,31119,image_3.jpg,0,image_button3,,,,,
,survey-multi-select,12,257622,0.0-12.0,12,1,2023-07-28 12:39:05,b2c816d5360f491c73de124b599fb059,,Mozilla/5.0 (Macintosh; Intel Mac OS X 10.15; rv:109.0) Gecko/20100101 Firefox/114.0,Macintosh,Firefox,114.0,OS X,10.15,35702,,"{""image_response3"":[""Heart"",""Liver"",""Bone"",""Muscle"",""Stethoscope"",""Brain"",""Medication"",""Vaccin"",""Blood"",""Gloves"",""Injury"",""Coffee"",""Scissors"",""Alcohol"",""Wheelchair"",""Hospital"",""Virus""]}",multi_select3,,,,,[0]
,audio-button-response,13,274039,0.0-13.0,12,1,2023-07-28 12:39:05,b2c816d5360f491c73de124b599fb059,,Mozilla/5.0 (Macintosh; Intel Mac OS X 10.15; rv:109.0) Gecko/20100101 Firefox/114.0,Macintosh,Firefox,114.0,OS X,10.15,16219,classic_audio_2.wav,0,audio_button4,,,,,
,image-button-response,14,305705,0.0-14.0,12,1,2023-07-28 12:39:05,b2c816d5360f491c73de124b599fb059,,Mozilla/5.0 (Macintosh; Intel Mac OS X 10.15; rv:109.0) Gecko/20100101 Firefox/114.0,Macintosh,Firefox,114.0,OS X,10.15,31663,image_4.jpg,0,image_button4,,,,,
,survey-multi-select,15,334549,0.0-15.0,12,1,2023-07-28 12:39:05,b2c816d5360f491c73de124b599fb059,,Mozilla/5.0 (Macintosh; Intel Mac OS X 10.15; rv:109.0) Gecko/20100101 Firefox/114.0,Macintosh,Firefox,114.0,OS X,10.15,28834,,"{""image_response4"":[""Bed"",""Spatula"",""Cutlery"",""Toilet"",""Lamp"",""Sink"",""Window"",""Pot"",""Bottle"",""Chair"",""Mirror"",""Curtains"",""Pillow""]}",multi_select4,,,,,[0]
true,fullscreen,0,2870,0.0-0.0,10,1,2023-07-28 12:38:43,b2c816d5360f491c73de124b599fb059,,"Mozilla/5.0 (Macintosh; Intel Mac OS X 10_15_7) AppleWebKit/605.1.15 (KHTML, like Gecko) Version/15.6.1 Safari/605.1.15",Macintosh,Safari,15.6.1,OS X,10_15_7,,,,,,,,,
,html-button-response,1,4402,0.0-1.0,10,1,2023-07-28 12:38:43,b2c816d5360f491c73de124b599fb059,,"Mozilla/5.0 (Macintosh; Intel Mac OS X 10_15_7) AppleWebKit/605.1.15 (KHTML, like Gecko) Version/15.6.1 Safari/605.1.15",Macintosh,Safari,15.6.1,OS X,10_15_7,1526,Welcome to the experiment of group 1,0,,,,,,
,html-button-response,2,12079,0.0-2.0,10,1,2023-07-28 12:38:43,b2c816d5360f491c73de124b599fb059,,"Mozilla/5.0 (Macintosh; Intel Mac OS X 10_15_7) AppleWebKit/605.1.15 (KHTML, like Gecko) Version/15.6.1 Safari/605.1.15",Macintosh,Safari,15.6.1,OS X,10_15_7,7676,"
        <p>In this experiment, you will hear 4 songs playing.</p>
        <p> After each track, you will see an image. You will have 30s to memorise as many items as possible </p>
        <p> Then, you will need to select at most 18 items you remember.</p>",0,instruction,,,,,
true,preload,3,12082,0.0-3.0,10,1,2023-07-28 12:38:43,b2c816d5360f491c73de124b599fb059,,"Mozilla/5.0 (Macintosh; Intel Mac OS X 10_15_7) AppleWebKit/605.1.15 (KHTML, like Gecko) Version/15.6.1 Safari/605.1.15",Macintosh,Safari,15.6.1,OS X,10_15_7,,,,,false,[],[],[],
,audio-button-response,4,36448,0.0-4.0,10,1,2023-07-28 12:38:43,b2c816d5360f491c73de124b599fb059,,"Mozilla/5.0 (Macintosh; Intel Mac OS X 10_15_7) AppleWebKit/605.1.15 (KHTML, like Gecko) Version/15.6.1 Safari/605.1.15",Macintosh,Safari,15.6.1,OS X,10_15_7,17261,classic_audio_1.wav,0,audio_button1,,,,,
,image-button-response,5,77182,0.0-5.0,10,1,2023-07-28 12:38:43,b2c816d5360f491c73de124b599fb059,,"Mozilla/5.0 (Macintosh; Intel Mac OS X 10_15_7) AppleWebKit/605.1.15 (KHTML, like Gecko) Version/15.6.1 Safari/605.1.15",Macintosh,Safari,15.6.1,OS X,10_15_7,40730,image_1.jpg,0,image_button1,,,,,
,survey-multi-select,6,139663,0.0-6.0,10,1,2023-07-28 12:38:43,b2c816d5360f491c73de124b599fb059,,"Mozilla/5.0 (Macintosh; Intel Mac OS X 10_15_7) AppleWebKit/605.1.15 (KHTML, like Gecko) Version/15.6.1 Safari/605.1.15",Macintosh,Safari,15.6.1,OS X,10_15_7,62465,,"{""image_response1"":[""Courgette"",""Potato"",""Bread"",""Donut"",""Strawberry"",""Aubergine"",""Cucumber"",""Pommegranate"",""Apple"",""Tomato"",""Croissant"",""Fries"",""Crisps"",""Salmon""]}",multi_select1,,,,,[0]
,audio-button-response,7,165276,0.0-7.0,10,1,2023-07-28 12:38:43,b2c816d5360f491c73de124b599fb059,,"Mozilla/5.0 (Macintosh; Intel Mac OS X 10_15_7) AppleWebKit/605.1.15 (KHTML, like Gecko) Version/15.6.1 Safari/605.1.15",Macintosh,Safari,15.6.1,OS X,10_15_7,18495,metal_audio_1.wav,0,audio_button2,,,,,
,image-button-response,8,200254,0.0-8.0,10,1,2023-07-28 12:38:43,b2c816d5360f491c73de124b599fb059,,"Mozilla/5.0 (Macintosh; Intel Mac OS X 10_15_7) AppleWebKit/605.1.15 (KHTML, like Gecko) Version/15.6.1 Safari/605.1.15",Macintosh,Safari,15.6.1,OS X,10_15_7,34974,image_2.jpg,0,image_button2,,,,,
,survey-multi-select,9,243149,0.0-9.0,10,1,2023-07-28 12:38:43,b2c816d5360f491c73de124b599fb059,,"Mozilla/5.0 (Macintosh; Intel Mac OS X 10_15_7) AppleWebKit/605.1.15 (KHTML, like Gecko) Version/15.6.1 Safari/605.1.15",Macintosh,Safari,15.6.1,OS X,10_15_7,42883,,"{""image_response2"":[""Clownfish"",""Bee"",""Fire"",""Tiger"",""Elephant"",""Polar bear"",""Rainbow"",""Thunder"",""Moon"",""Waterfall"",""Rain""]}",multi_select2,,,,,[0]
,audio-button-response,10,265012,0.0-10.0,10,1,2023-07-28 12:38:43,b2c816d5360f491c73de124b599fb059,,"Mozilla/5.0 (Macintosh; Intel Mac OS X 10_15_7) AppleWebKit/605.1.15 (KHTML, like Gecko) Version/15.6.1 Safari/605.1.15",Macintosh,Safari,15.6.1,OS X,10_15_7,16405,metal_audio_2.wav,0,audio_button3,,,,,
,image-button-response,11,296759,0.0-11.0,10,1,2023-07-28 12:38:43,b2c816d5360f491c73de124b599fb059,,"Mozilla/5.0 (Macintosh; Intel Mac OS X 10_15_7) AppleWebKit/605.1.15 (KHTML, like Gecko) Version/15.6.1 Safari/605.1.15",Macintosh,Safari,15.6.1,OS X,10_15_7,31744,image_3.jpg,0,image_button3,,,,,
,survey-multi-select,12,336788,0.0-12.0,10,1,2023-07-28 12:38:43,b2c816d5360f491c73de124b599fb059,,"Mozilla/5.0 (Macintosh; Intel Mac OS X 10_15_7) AppleWebKit/605.1.15 (KHTML, like Gecko) Version/15.6.1 Safari/605.1.15",Macintosh,Safari,15.6.1,OS X,10_15_7,40018,,"{""image_response3"":[""Heart"",""Liver"",""Bone"",""Muscle"",""Brain"",""Medication"",""Coat"",""Gloves"",""Coffee"",""Alcohol"",""Wheelchair"",""Hospital"",""Bandage""]}",multi_select3,,,,,[0]
,audio-button-response,13,355432,0.0-13.0,10,1,2023-07-28 12:38:43,b2c816d5360f491c73de124b599fb059,,"Mozilla/5.0 (Macintosh; Intel Mac OS X 10_15_7) AppleWebKit/605.1.15 (KHTML, like Gecko) Version/15.6.1 Safari/605.1.15",Macintosh,Safari,15.6.1,OS X,10_15_7,17403,classic_audio_2.wav,0,audio_button4,,,,,
,image-button-response,14,386732,0.0-14.0,10,1,2023-07-28 12:38:43,b2c816d5360f491c73de124b599fb059,,"Mozilla/5.0 (Macintosh; Intel Mac OS X 10_15_7) AppleWebKit/605.1.15 (KHTML, like Gecko) Version/15.6.1 Safari/605.1.15",Macintosh,Safari,15.6.1,OS X,10_15_7,31296,image_4.jpg,0,image_button4,,,,,
,survey-multi-select,15,421696,0.0-15.0,10,1,2023-07-28 12:38:43,b2c816d5360f491c73de124b599fb059,,"Mozilla/5.0 (Macintosh; Intel Mac OS X 10_15_7) AppleWebKit/605.1.15 (KHTML, like Gecko) Version/15.6.1 Safari/605.1.15",Macintosh,Safari,15.6.1,OS X,10_15_7,34953,,"{""image_response4"":[""Bed"",""Desk"",""Spatula"",""Cutlery"",""Lamp"",""Sink"",""Pan"",""Pot"",""Bottle"",""Glass"",""Mixer"",""Mirror"",""Curtains""]}",multi_select4,,,,,[0]
true,fullscreen,0,38536,0.0-0.0,1,1,2023-07-28 12:37:47,b2c816d5360f491c73de124b599fb059,,"Mozilla/5.0 (Windows NT 10.0; Win64; x64) AppleWebKit/537.36 (KHTML, like Gecko) Chrome/114.0.0.0 Safari/537.36",WebKit,Chrome,114.0.0.0,Windows,10.0,,,,,,,,,
,html-button-response,1,40142,0.0-1.0,1,1,2023-07-28 12:37:47,b2c816d5360f491c73de124b599fb059,,"Mozilla/5.0 (Windows NT 10.0; Win64; x64) AppleWebKit/537.36 (KHTML, like Gecko) Chrome/114.0.0.0 Safari/537.36",WebKit,Chrome,114.0.0.0,Windows,10.0,1603,Welcome to the experiment of group 1,0,,,,,,
,html-button-response,2,50466,0.0-2.0,1,1,2023-07-28 12:37:47,b2c816d5360f491c73de124b599fb059,,"Mozilla/5.0 (Windows NT 10.0; Win64; x64) AppleWebKit/537.36 (KHTML, like Gecko) Chrome/114.0.0.0 Safari/537.36",WebKit,Chrome,114.0.0.0,Windows,10.0,10319,"
        <p>In this experiment, you will hear 4 songs playing.</p>
        <p> After each track, you will see an image. You will have 30s to memorise as many items as possible </p>
        <p> Then, you will need to select at most 18 items you remember.</p>",0,instruction,,,,,
true,preload,3,50467,0.0-3.0,1,1,2023-07-28 12:37:47,b2c816d5360f491c73de124b599fb059,,"Mozilla/5.0 (Windows NT 10.0; Win64; x64) AppleWebKit/537.36 (KHTML, like Gecko) Chrome/114.0.0.0 Safari/537.36",WebKit,Chrome,114.0.0.0,Windows,10.0,,,,,false,[],[],[],
,audio-button-response,4,67918,0.0-4.0,1,1,2023-07-28 12:37:47,b2c816d5360f491c73de124b599fb059,,"Mozilla/5.0 (Windows NT 10.0; Win64; x64) AppleWebKit/537.36 (KHTML, like Gecko) Chrome/114.0.0.0 Safari/537.36",WebKit,Chrome,114.0.0.0,Windows,10.0,17171,classic_audio_1.wav,0,audio_button1,,,,,
,image-button-response,5,96116,0.0-5.0,1,1,2023-07-28 12:37:47,b2c816d5360f491c73de124b599fb059,,"Mozilla/5.0 (Windows NT 10.0; Win64; x64) AppleWebKit/537.36 (KHTML, like Gecko) Chrome/114.0.0.0 Safari/537.36",WebKit,Chrome,114.0.0.0,Windows,10.0,28193,image_1.jpg,0,image_button1,,,,,
,survey-multi-select,6,136545,0.0-6.0,1,1,2023-07-28 12:37:47,b2c816d5360f491c73de124b599fb059,,"Mozilla/5.0 (Windows NT 10.0; Win64; x64) AppleWebKit/537.36 (KHTML, like Gecko) Chrome/114.0.0.0 Safari/537.36",WebKit,Chrome,114.0.0.0,Windows,10.0,40395,,"{""image_response1"":[""Courgette"",""Potato"",""Bread"",""Lemon"",""Orange"",""Strawberry"",""Aubergine"",""Cucumber"",""Pommegranate"",""Apple"",""Tomato"",""Croissant"",""Watermelon"",""Salmon"",""Bell pepper""]}",multi_select1,,,,,[0]
,audio-button-response,7,153499,0.0-7.0,1,1,2023-07-28 12:37:47,b2c816d5360f491c73de124b599fb059,,"Mozilla/5.0 (Windows NT 10.0; Win64; x64) AppleWebKit/537.36 (KHTML, like Gecko) Chrome/114.0.0.0 Safari/537.36",WebKit,Chrome,114.0.0.0,Windows,10.0,16669,metal_audio_1.wav,0,audio_button2,,,,,
,image-button-response,8,169235,0.0-8.0,1,1,2023-07-28 12:37:47,b2c816d5360f491c73de124b599fb059,,"Mozilla/5.0 (Windows NT 10.0; Win64; x64) AppleWebKit/537.36 (KHTML, like Gecko) Chrome/114.0.0.0 Safari/537.36",WebKit,Chrome,114.0.0.0,Windows,10.0,15732,image_2.jpg,0,image_button2,,,,,
,survey-multi-select,9,192660,0.0-9.0,1,1,2023-07-28 12:37:47,b2c816d5360f491c73de124b599fb059,,"Mozilla/5.0 (Windows NT 10.0; Win64; x64) AppleWebKit/537.36 (KHTML, like Gecko) Chrome/114.0.0.0 Safari/537.36",WebKit,Chrome,114.0.0.0,Windows,10.0,23396,,"{""image_response2"":[""Clownfish"",""Tiger"",""Elephant"",""Volcano"",""Lion"",""Polar bear"",""Rainbow"",""Moon"",""Tree"",""Beach"",""Dolphin"",""Butterfly"",""Rain""]}",multi_select2,,,,,[0]
,audio-button-response,10,209085,0.0-10.0,1,1,2023-07-28 12:37:47,b2c816d5360f491c73de124b599fb059,,"Mozilla/5.0 (Windows NT 10.0; Win64; x64) AppleWebKit/537.36 (KHTML, like Gecko) Chrome/114.0.0.0 Safari/537.36",WebKit,Chrome,114.0.0.0,Windows,10.0,16141,metal_audio_2.wav,0,audio_button3,,,,,
,image-button-response,11,270352,0.0-11.0,1,1,2023-07-28 12:37:47,b2c816d5360f491c73de124b599fb059,,"Mozilla/5.0 (Windows NT 10.0; Win64; x64) AppleWebKit/537.36 (KHTML, like Gecko) Chrome/114.0.0.0 Safari/537.36",WebKit,Chrome,114.0.0.0,Windows,10.0,61263,image_3.jpg,0,image_button3,,,,,
,survey-multi-select,12,279311,0.0-12.0,1,1,2023-07-28 12:37:47,b2c816d5360f491c73de124b599fb059,,"Mozilla/5.0 (Windows NT 10.0; Win64; x64) AppleWebKit/537.36 (KHTML, like Gecko) Chrome/114.0.0.0 Safari/537.36",WebKit,Chrome,114.0.0.0,Windows,10.0,8928,,"{""image_response3"":[""Heart""]}",multi_select3,,,,,[0]
,audio-button-response,13,295850,0.0-13.0,1,1,2023-07-28 12:37:47,b2c816d5360f491c73de124b599fb059,,"Mozilla/5.0 (Windows NT 10.0; Win64; x64) AppleWebKit/537.36 (KHTML, like Gecko) Chrome/114.0.0.0 Safari/537.36",WebKit,Chrome,114.0.0.0,Windows,10.0,16301,classic_audio_2.wav,0,audio_button4,,,,,
,image-button-response,14,299105,0.0-14.0,1,1,2023-07-28 12:37:47,b2c816d5360f491c73de124b599fb059,,"Mozilla/5.0 (Windows NT 10.0; Win64; x64) AppleWebKit/537.36 (KHTML, like Gecko) Chrome/114.0.0.0 Safari/537.36",WebKit,Chrome,114.0.0.0,Windows,10.0,3252,image_4.jpg,0,image_button4,,,,,
,survey-multi-select,15,314651,0.0-15.0,1,1,2023-07-28 12:37:47,b2c816d5360f491c73de124b599fb059,,"Mozilla/5.0 (Windows NT 10.0; Win64; x64) AppleWebKit/537.36 (KHTML, like Gecko) Chrome/114.0.0.0 Safari/537.36",WebKit,Chrome,114.0.0.0,Windows,10.0,15518,,"{""image_response4"":[""Bed"",""Desk"",""Spatula"",""Cutlery"",""Pan"",""Pot"",""Bottle"",""Oven"",""Mixer"",""Chair""]}",multi_select4,,,,,[0]
true,fullscreen,0,3394,0.0-0.0,18,1,2023-07-28 13:00:58,b2c816d5360f491c73de124b599fb059,,Mozilla/5.0 (Windows NT 10.0; Win64; x64; rv:109.0) Gecko/20100101 Firefox/115.0,,Firefox,115.0,Windows,10.0,,,,,,,,,
,html-button-response,1,10962,0.0-1.0,18,1,2023-07-28 13:00:58,b2c816d5360f491c73de124b599fb059,,Mozilla/5.0 (Windows NT 10.0; Win64; x64; rv:109.0) Gecko/20100101 Firefox/115.0,,Firefox,115.0,Windows,10.0,7565,Welcome to the experiment of group 1,0,,,,,,
,html-button-response,2,13293,0.0-2.0,18,1,2023-07-28 13:00:58,b2c816d5360f491c73de124b599fb059,,Mozilla/5.0 (Windows NT 10.0; Win64; x64; rv:109.0) Gecko/20100101 Firefox/115.0,,Firefox,115.0,Windows,10.0,2326,"
        <p>In this experiment, you will hear 4 songs playing.</p>
        <p> After each track, you will see an image. You will have 30s to memorise as many items as possible </p>
        <p> Then, you will need to select at most 18 items you remember.</p>",0,instruction,,,,,
true,preload,3,13294,0.0-3.0,18,1,2023-07-28 13:00:58,b2c816d5360f491c73de124b599fb059,,Mozilla/5.0 (Windows NT 10.0; Win64; x64; rv:109.0) Gecko/20100101 Firefox/115.0,,Firefox,115.0,Windows,10.0,,,,,false,[],[],[],
,audio-button-response,4,29927,0.0-4.0,18,1,2023-07-28 13:00:58,b2c816d5360f491c73de124b599fb059,,Mozilla/5.0 (Windows NT 10.0; Win64; x64; rv:109.0) Gecko/20100101 Firefox/115.0,,Firefox,115.0,Windows,10.0,16552,classic_audio_1.wav,0,audio_button1,,,,,
,image-button-response,5,62377,0.0-5.0,18,1,2023-07-28 13:00:58,b2c816d5360f491c73de124b599fb059,,Mozilla/5.0 (Windows NT 10.0; Win64; x64; rv:109.0) Gecko/20100101 Firefox/115.0,,Firefox,115.0,Windows,10.0,32450,image_1.jpg,0,image_button1,,,,,
,survey-multi-select,6,158516,0.0-6.0,18,1,2023-07-28 13:00:58,b2c816d5360f491c73de124b599fb059,,Mozilla/5.0 (Windows NT 10.0; Win64; x64; rv:109.0) Gecko/20100101 Firefox/115.0,,Firefox,115.0,Windows,10.0,96134,,"{""image_response1"":[""Courgette"",""Potato"",""Tomato"",""Salmon""]}",multi_select1,,,,,[0]
true,fullscreen,0,2118,0.0-0.0,15,1,2023-07-28 12:44:42,b2c816d5360f491c73de124b599fb059,,"Mozilla/5.0 (Macintosh; Intel Mac OS X 10_15_7) AppleWebKit/605.1.15 (KHTML, like Gecko) Version/16.1 Safari/605.1.15",Macintosh,Safari,16.1,OS X,10_15_7,,,,,,,,,
,html-button-response,1,2912,0.0-1.0,15,1,2023-07-28 12:44:42,b2c816d5360f491c73de124b599fb059,,"Mozilla/5.0 (Macintosh; Intel Mac OS X 10_15_7) AppleWebKit/605.1.15 (KHTML, like Gecko) Version/16.1 Safari/605.1.15",Macintosh,Safari,16.1,OS X,10_15_7,789,Welcome to the experiment of group 1,0,,,,,,
,html-button-response,2,11020,0.0-2.0,15,1,2023-07-28 12:44:42,b2c816d5360f491c73de124b599fb059,,"Mozilla/5.0 (Macintosh; Intel Mac OS X 10_15_7) AppleWebKit/605.1.15 (KHTML, like Gecko) Version/16.1 Safari/605.1.15",Macintosh,Safari,16.1,OS X,10_15_7,8105,"
        <p>In this experiment, you will hear 4 songs playing.</p>
        <p> After each track, you will see an image. You will have 30s to memorise as many items as possible </p>
        <p> Then, you will need to select at most 18 items you remember.</p>",0,instruction,,,,,
true,preload,3,11023,0.0-3.0,15,1,2023-07-28 12:44:42,b2c816d5360f491c73de124b599fb059,,"Mozilla/5.0 (Macintosh; Intel Mac OS X 10_15_7) AppleWebKit/605.1.15 (KHTML, like Gecko) Version/16.1 Safari/605.1.15",Macintosh,Safari,16.1,OS X,10_15_7,,,,,false,[],[],[],
,audio-button-response,4,30166,0.0-4.0,15,1,2023-07-28 12:44:42,b2c816d5360f491c73de124b599fb059,,"Mozilla/5.0 (Macintosh; Intel Mac OS X 10_15_7) AppleWebKit/605.1.15 (KHTML, like Gecko) Version/16.1 Safari/605.1.15",Macintosh,Safari,16.1,OS X,10_15_7,19093,classic_audio_1.wav,0,audio_button1,,,,,
,image-button-response,5,57809,0.0-5.0,15,1,2023-07-28 12:44:42,b2c816d5360f491c73de124b599fb059,,"Mozilla/5.0 (Macintosh; Intel Mac OS X 10_15_7) AppleWebKit/605.1.15 (KHTML, like Gecko) Version/16.1 Safari/605.1.15",Macintosh,Safari,16.1,OS X,10_15_7,27635,image_1.jpg,0,image_button1,,,,,
,survey-multi-select,6,87802,0.0-6.0,15,1,2023-07-28 12:44:42,b2c816d5360f491c73de124b599fb059,,"Mozilla/5.0 (Macintosh; Intel Mac OS X 10_15_7) AppleWebKit/605.1.15 (KHTML, like Gecko) Version/16.1 Safari/605.1.15",Macintosh,Safari,16.1,OS X,10_15_7,29980,,"{""image_response1"":[""Courgette"",""Potato"",""Bread"",""Donut"",""Orange"",""Raspberry"",""Aubergine"",""Cucumber"",""Pommegranate"",""Apple"",""Tomato"",""Croissant"",""Fries"",""Bell pepper""]}",multi_select1,,,,,[0]
,audio-button-response,7,105569,0.0-7.0,15,1,2023-07-28 12:44:42,b2c816d5360f491c73de124b599fb059,,"Mozilla/5.0 (Macintosh; Intel Mac OS X 10_15_7) AppleWebKit/605.1.15 (KHTML, like Gecko) Version/16.1 Safari/605.1.15",Macintosh,Safari,16.1,OS X,10_15_7,17725,metal_audio_1.wav,0,audio_button2,,,,,
,image-button-response,8,122510,0.0-8.0,15,1,2023-07-28 12:44:42,b2c816d5360f491c73de124b599fb059,,"Mozilla/5.0 (Macintosh; Intel Mac OS X 10_15_7) AppleWebKit/605.1.15 (KHTML, like Gecko) Version/16.1 Safari/605.1.15",Macintosh,Safari,16.1,OS X,10_15_7,16935,image_2.jpg,0,image_button2,,,,,
,survey-multi-select,9,147128,0.0-9.0,15,1,2023-07-28 12:44:42,b2c816d5360f491c73de124b599fb059,,"Mozilla/5.0 (Macintosh; Intel Mac OS X 10_15_7) AppleWebKit/605.1.15 (KHTML, like Gecko) Version/16.1 Safari/605.1.15",Macintosh,Safari,16.1,OS X,10_15_7,24609,,"{""image_response2"":[""Clownfish"",""Bee"",""Fire"",""Flower"",""Volcano"",""Lion"",""Polar bear"",""Parrot"",""Helicopter"",""Thunder"",""Boat"",""Moon"",""Dolphin"",""Butterfly""]}",multi_select2,,,,,[0]
,audio-button-response,10,165774,0.0-10.0,15,1,2023-07-28 12:44:42,b2c816d5360f491c73de124b599fb059,,"Mozilla/5.0 (Macintosh; Intel Mac OS X 10_15_7) AppleWebKit/605.1.15 (KHTML, like Gecko) Version/16.1 Safari/605.1.15",Macintosh,Safari,16.1,OS X,10_15_7,18603,metal_audio_2.wav,0,audio_button3,,,,,
,image-button-response,11,181621,0.0-11.0,15,1,2023-07-28 12:44:42,b2c816d5360f491c73de124b599fb059,,"Mozilla/5.0 (Macintosh; Intel Mac OS X 10_15_7) AppleWebKit/605.1.15 (KHTML, like Gecko) Version/16.1 Safari/605.1.15",Macintosh,Safari,16.1,OS X,10_15_7,15841,image_3.jpg,0,image_button3,,,,,
,survey-multi-select,12,217137,0.0-12.0,15,1,2023-07-28 12:44:42,b2c816d5360f491c73de124b599fb059,,"Mozilla/5.0 (Macintosh; Intel Mac OS X 10_15_7) AppleWebKit/605.1.15 (KHTML, like Gecko) Version/16.1 Safari/605.1.15",Macintosh,Safari,16.1,OS X,10_15_7,35505,,"{""image_response3"":[""Heart"",""Brain"",""Medication"",""Vaccin"",""Nerves"",""Gloves"",""Scissors"",""Virus"",""Bandage""]}",multi_select3,,,,,[0]
,audio-button-response,13,234948,0.0-13.0,15,1,2023-07-28 12:44:42,b2c816d5360f491c73de124b599fb059,,"Mozilla/5.0 (Macintosh; Intel Mac OS X 10_15_7) AppleWebKit/605.1.15 (KHTML, like Gecko) Version/16.1 Safari/605.1.15",Macintosh,Safari,16.1,OS X,10_15_7,17771,classic_audio_2.wav,0,audio_button4,,,,,
,image-button-response,14,253713,0.0-14.0,15,1,2023-07-28 12:44:42,b2c816d5360f491c73de124b599fb059,,"Mozilla/5.0 (Macintosh; Intel Mac OS X 10_15_7) AppleWebKit/605.1.15 (KHTML, like Gecko) Version/16.1 Safari/605.1.15",Macintosh,Safari,16.1,OS X,10_15_7,18760,image_4.jpg,0,image_button4,,,,,
,survey-multi-select,15,283110,0.0-15.0,15,1,2023-07-28 12:44:42,b2c816d5360f491c73de124b599fb059,,"Mozilla/5.0 (Macintosh; Intel Mac OS X 10_15_7) AppleWebKit/605.1.15 (KHTML, like Gecko) Version/16.1 Safari/605.1.15",Macintosh,Safari,16.1,OS X,10_15_7,29388,,"{""image_response4"":[""Bed"",""Desk"",""Cutlery"",""Toilet"",""Lamp"",""Pot"",""Bottle"",""Glass"",""Hanger"",""Curtains"",""Blanket"",""Pillow""]}",multi_select4,,,,,[0]
true,fullscreen,0,3091,0.0-0.0,13,1,2023-07-28 12:39:12,b2c816d5360f491c73de124b599fb059,,"Mozilla/5.0 (Macintosh; Intel Mac OS X 10_15_7) AppleWebKit/605.1.15 (KHTML, like Gecko) Version/15.4 Safari/605.1.15",Macintosh,Safari,15.4,OS X,10_15_7,,,,,,,,,
,html-button-response,1,4728,0.0-1.0,13,1,2023-07-28 12:39:12,b2c816d5360f491c73de124b599fb059,,"Mozilla/5.0 (Macintosh; Intel Mac OS X 10_15_7) AppleWebKit/605.1.15 (KHTML, like Gecko) Version/15.4 Safari/605.1.15",Macintosh,Safari,15.4,OS X,10_15_7,1632,Welcome to the experiment of group 1,0,,,,,,
,html-button-response,2,19338,0.0-2.0,13,1,2023-07-28 12:39:12,b2c816d5360f491c73de124b599fb059,,"Mozilla/5.0 (Macintosh; Intel Mac OS X 10_15_7) AppleWebKit/605.1.15 (KHTML, like Gecko) Version/15.4 Safari/605.1.15",Macintosh,Safari,15.4,OS X,10_15_7,14608,"
        <p>In this experiment, you will hear 4 songs playing.</p>
        <p> After each track, you will see an image. You will have 30s to memorise as many items as possible </p>
        <p> Then, you will need to select at most 18 items you remember.</p>",0,instruction,,,,,
true,preload,3,19342,0.0-3.0,13,1,2023-07-28 12:39:12,b2c816d5360f491c73de124b599fb059,,"Mozilla/5.0 (Macintosh; Intel Mac OS X 10_15_7) AppleWebKit/605.1.15 (KHTML, like Gecko) Version/15.4 Safari/605.1.15",Macintosh,Safari,15.4,OS X,10_15_7,,,,,false,[],[],[],
true,fullscreen,0,2329,0.0-0.0,17,1,2023-07-28 12:53:09,b2c816d5360f491c73de124b599fb059,,"Mozilla/5.0 (Windows NT 10.0; Win64; x64) AppleWebKit/537.36 (KHTML, like Gecko) Chrome/115.0.0.0 Safari/537.36",WebKit,Chrome,115.0.0.0,Windows,10.0,,,,,,,,,
,html-button-response,1,3533,0.0-1.0,17,1,2023-07-28 12:53:09,b2c816d5360f491c73de124b599fb059,,"Mozilla/5.0 (Windows NT 10.0; Win64; x64) AppleWebKit/537.36 (KHTML, like Gecko) Chrome/115.0.0.0 Safari/537.36",WebKit,Chrome,115.0.0.0,Windows,10.0,1194,Welcome to the experiment of group 1,0,,,,,,
,html-button-response,2,6716,0.0-2.0,17,1,2023-07-28 12:53:09,b2c816d5360f491c73de124b599fb059,,"Mozilla/5.0 (Windows NT 10.0; Win64; x64) AppleWebKit/537.36 (KHTML, like Gecko) Chrome/115.0.0.0 Safari/537.36",WebKit,Chrome,115.0.0.0,Windows,10.0,3177,"
        <p>In this experiment, you will hear 4 songs playing.</p>
        <p> After each track, you will see an image. You will have 30s to memorise as many items as possible </p>
        <p> Then, you will need to select at most 18 items you remember.</p>",0,instruction,,,,,
true,preload,3,6720,0.0-3.0,17,1,2023-07-28 12:53:09,b2c816d5360f491c73de124b599fb059,,"Mozilla/5.0 (Windows NT 10.0; Win64; x64) AppleWebKit/537.36 (KHTML, like Gecko) Chrome/115.0.0.0 Safari/537.36",WebKit,Chrome,115.0.0.0,Windows,10.0,,,,,false,[],[],[],
,audio-button-response,4,28958,0.0-4.0,17,1,2023-07-28 12:53:09,b2c816d5360f491c73de124b599fb059,,"Mozilla/5.0 (Windows NT 10.0; Win64; x64) AppleWebKit/537.36 (KHTML, like Gecko) Chrome/115.0.0.0 Safari/537.36",WebKit,Chrome,115.0.0.0,Windows,10.0,21251,classic_audio_1.wav,0,audio_button1,,,,,
,image-button-response,5,36754,0.0-5.0,17,1,2023-07-28 12:53:09,b2c816d5360f491c73de124b599fb059,,"Mozilla/5.0 (Windows NT 10.0; Win64; x64) AppleWebKit/537.36 (KHTML, like Gecko) Chrome/115.0.0.0 Safari/537.36",WebKit,Chrome,115.0.0.0,Windows,10.0,7785,image_1.jpg,0,image_button1,,,,,
,survey-multi-select,6,43302,0.0-6.0,17,1,2023-07-28 12:53:09,b2c816d5360f491c73de124b599fb059,,"Mozilla/5.0 (Windows NT 10.0; Win64; x64) AppleWebKit/537.36 (KHTML, like Gecko) Chrome/115.0.0.0 Safari/537.36",WebKit,Chrome,115.0.0.0,Windows,10.0,6482,,"{""image_response1"":[""Pineapple""]}",multi_select1,,,,,[0]
true,fullscreen,0,7828,0.0-0.0,3,1,2023-07-28 12:37:55,b2c816d5360f491c73de124b599fb059,,"Mozilla/5.0 (Windows NT 10.0; Win64; x64) AppleWebKit/537.36 (KHTML, like Gecko) Chrome/115.0.0.0 Safari/537.36",WebKit,Chrome,115.0.0.0,Windows,10.0,,,,,,,,,
,html-button-response,1,9792,0.0-1.0,3,1,2023-07-28 12:37:55,b2c816d5360f491c73de124b599fb059,,"Mozilla/5.0 (Windows NT 10.0; Win64; x64) AppleWebKit/537.36 (KHTML, like Gecko) Chrome/115.0.0.0 Safari/537.36",WebKit,Chrome,115.0.0.0,Windows,10.0,1956,Welcome to the experiment of group 1,0,,,,,,
,html-button-response,2,37786,0.0-2.0,3,1,2023-07-28 12:37:55,b2c816d5360f491c73de124b599fb059,,"Mozilla/5.0 (Windows NT 10.0; Win64; x64) AppleWebKit/537.36 (KHTML, like Gecko) Chrome/115.0.0.0 Safari/537.36",WebKit,Chrome,115.0.0.0,Windows,10.0,27992,"
        <p>In this experiment, you will hear 4 songs playing.</p>
        <p> After each track, you will see an image. You will have 30s to memorise as many items as possible </p>
        <p> Then, you will need to select at most 18 items you remember.</p>",0,instruction,,,,,
true,preload,3,37787,0.0-3.0,3,1,2023-07-28 12:37:55,b2c816d5360f491c73de124b599fb059,,"Mozilla/5.0 (Windows NT 10.0; Win64; x64) AppleWebKit/537.36 (KHTML, like Gecko) Chrome/115.0.0.0 Safari/537.36",WebKit,Chrome,115.0.0.0,Windows,10.0,,,,,false,[],[],[],
,audio-button-response,4,57243,0.0-4.0,3,1,2023-07-28 12:37:55,b2c816d5360f491c73de124b599fb059,,"Mozilla/5.0 (Windows NT 10.0; Win64; x64) AppleWebKit/537.36 (KHTML, like Gecko) Chrome/115.0.0.0 Safari/537.36",WebKit,Chrome,115.0.0.0,Windows,10.0,18784,classic_audio_1.wav,0,audio_button1,,,,,
,image-button-response,5,90087,0.0-5.0,3,1,2023-07-28 12:37:55,b2c816d5360f491c73de124b599fb059,,"Mozilla/5.0 (Windows NT 10.0; Win64; x64) AppleWebKit/537.36 (KHTML, like Gecko) Chrome/115.0.0.0 Safari/537.36",WebKit,Chrome,115.0.0.0,Windows,10.0,32840,image_1.jpg,0,image_button1,,,,,
,survey-multi-select,6,182266,0.0-6.0,3,1,2023-07-28 12:37:55,b2c816d5360f491c73de124b599fb059,,"Mozilla/5.0 (Windows NT 10.0; Win64; x64) AppleWebKit/537.36 (KHTML, like Gecko) Chrome/115.0.0.0 Safari/537.36",WebKit,Chrome,115.0.0.0,Windows,10.0,92147,,"{""image_response1"":[""Potato"",""Bread"",""Donut"",""Lemon"",""Orange"",""Raspberry"",""Strawberry"",""Aubergine"",""Cucumber"",""Pommegranate"",""Apple"",""Tomato"",""Croissant"",""Fries"",""Crisps"",""Salmon"",""Bell pepper""]}",multi_select1,,,,,[0]
,audio-button-response,7,206889,0.0-7.0,3,1,2023-07-28 12:37:55,b2c816d5360f491c73de124b599fb059,,"Mozilla/5.0 (Windows NT 10.0; Win64; x64) AppleWebKit/537.36 (KHTML, like Gecko) Chrome/115.0.0.0 Safari/537.36",WebKit,Chrome,115.0.0.0,Windows,10.0,20757,metal_audio_1.wav,0,audio_button2,,,,,
,image-button-response,8,239673,0.0-8.0,3,1,2023-07-28 12:37:55,b2c816d5360f491c73de124b599fb059,,"Mozilla/5.0 (Windows NT 10.0; Win64; x64) AppleWebKit/537.36 (KHTML, like Gecko) Chrome/115.0.0.0 Safari/537.36",WebKit,Chrome,115.0.0.0,Windows,10.0,32782,image_2.jpg,0,image_button2,,,,,
,survey-multi-select,9,309243,0.0-9.0,3,1,2023-07-28 12:37:55,b2c816d5360f491c73de124b599fb059,,"Mozilla/5.0 (Windows NT 10.0; Win64; x64) AppleWebKit/537.36 (KHTML, like Gecko) Chrome/115.0.0.0 Safari/537.36",WebKit,Chrome,115.0.0.0,Windows,10.0,69545,,"{""image_response2"":[""Clownfish"",""Bee"",""Fire"",""Flower"",""Elephant"",""Volcano"",""Lion"",""Polar bear"",""Rainbow"",""Parrot"",""Helicopter"",""Thunder"",""Boat"",""Moon"",""Tree"",""Dolphin"",""Butterfly"",""Ant""]}",multi_select2,,,,,[0]
,audio-button-response,10,330123,0.0-10.0,3,1,2023-07-28 12:37:55,b2c816d5360f491c73de124b599fb059,,"Mozilla/5.0 (Windows NT 10.0; Win64; x64) AppleWebKit/537.36 (KHTML, like Gecko) Chrome/115.0.0.0 Safari/537.36",WebKit,Chrome,115.0.0.0,Windows,10.0,19531,metal_audio_2.wav,0,audio_button3,,,,,
,image-button-response,11,361085,0.0-11.0,3,1,2023-07-28 12:37:55,b2c816d5360f491c73de124b599fb059,,"Mozilla/5.0 (Windows NT 10.0; Win64; x64) AppleWebKit/537.36 (KHTML, like Gecko) Chrome/115.0.0.0 Safari/537.36",WebKit,Chrome,115.0.0.0,Windows,10.0,30959,image_3.jpg,0,image_button3,,,,,
,survey-multi-select,12,445336,0.0-12.0,3,1,2023-07-28 12:37:55,b2c816d5360f491c73de124b599fb059,,"Mozilla/5.0 (Windows NT 10.0; Win64; x64) AppleWebKit/537.36 (KHTML, like Gecko) Chrome/115.0.0.0 Safari/537.36",WebKit,Chrome,115.0.0.0,Windows,10.0,84224,,"{""image_response3"":[""Heart"",""Liver"",""Bone"",""Muscle"",""Stethoscope"",""Brain"",""Medication"",""Coat"",""Vaccin"",""Gloves"",""Injury"",""Coffee"",""Scissors"",""Alcohol"",""Wheelchair"",""Hospital"",""Virus""]}",multi_select3,,,,,[0]
,audio-button-response,13,467906,0.0-13.0,3,1,2023-07-28 12:37:55,b2c816d5360f491c73de124b599fb059,,"Mozilla/5.0 (Windows NT 10.0; Win64; x64) AppleWebKit/537.36 (KHTML, like Gecko) Chrome/115.0.0.0 Safari/537.36",WebKit,Chrome,115.0.0.0,Windows,10.0,21205,classic_audio_2.wav,0,audio_button4,,,,,
,image-button-response,14,503984,0.0-14.0,3,1,2023-07-28 12:37:55,b2c816d5360f491c73de124b599fb059,,"Mozilla/5.0 (Windows NT 10.0; Win64; x64) AppleWebKit/537.36 (KHTML, like Gecko) Chrome/115.0.0.0 Safari/537.36",WebKit,Chrome,115.0.0.0,Windows,10.0,36075,image_4.jpg,0,image_button4,,,,,
,survey-multi-select,15,584340,0.0-15.0,3,1,2023-07-28 12:37:55,b2c816d5360f491c73de124b599fb059,,"Mozilla/5.0 (Windows NT 10.0; Win64; x64) AppleWebKit/537.36 (KHTML, like Gecko) Chrome/115.0.0.0 Safari/537.36",WebKit,Chrome,115.0.0.0,Windows,10.0,80334,,"{""image_response4"":[""Bed"",""Desk"",""Spatula"",""Cutlery"",""Bag"",""Lamp"",""Sink"",""Pan"",""Window"",""Pot"",""Bottle"",""Glass"",""Mixer"",""Mirror"",""Curtains""]}",multi_select4,,,,,[0]
true,fullscreen,0,5628,0.0-0.0,2,1,2023-07-28 12:37:51,b2c816d5360f491c73de124b599fb059,,"Mozilla/5.0 (Macintosh; Intel Mac OS X 10_15_7) AppleWebKit/537.36 (KHTML, like Gecko) Chrome/113.0.0.0 Safari/537.36",Macintosh,Chrome,113.0.0.0,OS X,10_15_7,,,,,,,,,
,html-button-response,1,6681,0.0-1.0,2,1,2023-07-28 12:37:51,b2c816d5360f491c73de124b599fb059,,"Mozilla/5.0 (Macintosh; Intel Mac OS X 10_15_7) AppleWebKit/537.36 (KHTML, like Gecko) Chrome/113.0.0.0 Safari/537.36",Macintosh,Chrome,113.0.0.0,OS X,10_15_7,1051,Welcome to the experiment of group 1,0,,,,,,
,html-button-response,2,9020,0.0-2.0,2,1,2023-07-28 12:37:51,b2c816d5360f491c73de124b599fb059,,"Mozilla/5.0 (Macintosh; Intel Mac OS X 10_15_7) AppleWebKit/537.36 (KHTML, like Gecko) Chrome/113.0.0.0 Safari/537.36",Macintosh,Chrome,113.0.0.0,OS X,10_15_7,2339,"
        <p>In this experiment, you will hear 4 songs playing.</p>
        <p> After each track, you will see an image. You will have 30s to memorise as many items as possible </p>
        <p> Then, you will need to select at most 18 items you remember.</p>",0,instruction,,,,,
true,preload,3,9022,0.0-3.0,2,1,2023-07-28 12:37:51,b2c816d5360f491c73de124b599fb059,,"Mozilla/5.0 (Macintosh; Intel Mac OS X 10_15_7) AppleWebKit/537.36 (KHTML, like Gecko) Chrome/113.0.0.0 Safari/537.36",Macintosh,Chrome,113.0.0.0,OS X,10_15_7,,,,,false,[],[],[],
,audio-button-response,4,25725,0.0-4.0,2,1,2023-07-28 12:37:51,b2c816d5360f491c73de124b599fb059,,"Mozilla/5.0 (Macintosh; Intel Mac OS X 10_15_7) AppleWebKit/537.36 (KHTML, like Gecko) Chrome/113.0.0.0 Safari/537.36",Macintosh,Chrome,113.0.0.0,OS X,10_15_7,16068,classic_audio_1.wav,0,audio_button1,,,,,
,image-button-response,5,44309,0.0-5.0,2,1,2023-07-28 12:37:51,b2c816d5360f491c73de124b599fb059,,"Mozilla/5.0 (Macintosh; Intel Mac OS X 10_15_7) AppleWebKit/537.36 (KHTML, like Gecko) Chrome/113.0.0.0 Safari/537.36",Macintosh,Chrome,113.0.0.0,OS X,10_15_7,18582,image_1.jpg,0,image_button1,,,,,
,survey-multi-select,6,121313,0.0-6.0,2,1,2023-07-28 12:37:51,b2c816d5360f491c73de124b599fb059,,"Mozilla/5.0 (Macintosh; Intel Mac OS X 10_15_7) AppleWebKit/537.36 (KHTML, like Gecko) Chrome/113.0.0.0 Safari/537.36",Macintosh,Chrome,113.0.0.0,OS X,10_15_7,76997,,"{""image_response1"":[""Courgette"",""Pineapple"",""Chocolate"",""Bread"",""Blueberries"",""Lemon"",""Orange"",""Raspberry"",""Strawberry"",""Aubergine"",""Cucumber"",""Apple"",""Tomato"",""Croissant"",""Watermelon"",""Pistachio"",""Mango"",""Bell pepper""]}",multi_select1,,,,,[0]
,audio-button-response,7,137718,0.0-7.0,2,1,2023-07-28 12:37:51,b2c816d5360f491c73de124b599fb059,,"Mozilla/5.0 (Macintosh; Intel Mac OS X 10_15_7) AppleWebKit/537.36 (KHTML, like Gecko) Chrome/113.0.0.0 Safari/537.36",Macintosh,Chrome,113.0.0.0,OS X,10_15_7,15772,metal_audio_1.wav,0,audio_button2,,,,,
,image-button-response,8,152976,0.0-8.0,2,1,2023-07-28 12:37:51,b2c816d5360f491c73de124b599fb059,,"Mozilla/5.0 (Macintosh; Intel Mac OS X 10_15_7) AppleWebKit/537.36 (KHTML, like Gecko) Chrome/113.0.0.0 Safari/537.36",Macintosh,Chrome,113.0.0.0,OS X,10_15_7,15256,image_2.jpg,0,image_button2,,,,,
,survey-multi-select,9,223487,0.0-9.0,2,1,2023-07-28 12:37:51,b2c816d5360f491c73de124b599fb059,,"Mozilla/5.0 (Macintosh; Intel Mac OS X 10_15_7) AppleWebKit/537.36 (KHTML, like Gecko) Chrome/113.0.0.0 Safari/537.36",Macintosh,Chrome,113.0.0.0,OS X,10_15_7,70503,,"{""image_response2"":[""Bee"",""Cat"",""Fire"",""Eagle"",""Flower"",""Tiger"",""Elephant"",""Volcano"",""Lion"",""Shark"",""Polar bear"",""Rainbow"",""Parrot"",""Thunder"",""Boat"",""Snow"",""Moon"",""Tree"",""Rain""]}",multi_select2,,,,,[0]
,audio-button-response,10,241237,0.0-10.0,2,1,2023-07-28 12:37:51,b2c816d5360f491c73de124b599fb059,,"Mozilla/5.0 (Macintosh; Intel Mac OS X 10_15_7) AppleWebKit/537.36 (KHTML, like Gecko) Chrome/113.0.0.0 Safari/537.36",Macintosh,Chrome,113.0.0.0,OS X,10_15_7,17212,metal_audio_2.wav,0,audio_button3,,,,,
,image-button-response,11,255067,0.0-11.0,2,1,2023-07-28 12:37:51,b2c816d5360f491c73de124b599fb059,,"Mozilla/5.0 (Macintosh; Intel Mac OS X 10_15_7) AppleWebKit/537.36 (KHTML, like Gecko) Chrome/113.0.0.0 Safari/537.36",Macintosh,Chrome,113.0.0.0,OS X,10_15_7,13827,image_3.jpg,0,image_button3,,,,,
,survey-multi-select,12,321442,0.0-12.0,2,1,2023-07-28 12:37:51,b2c816d5360f491c73de124b599fb059,,"Mozilla/5.0 (Macintosh; Intel Mac OS X 10_15_7) AppleWebKit/537.36 (KHTML, like Gecko) Chrome/113.0.0.0 Safari/537.36",Macintosh,Chrome,113.0.0.0,OS X,10_15_7,66368,,"{""image_response3"":[""Heart"",""Bone"",""Stethoscope"",""Kidney"",""Brain"",""Medication"",""Coat"",""Intestines"",""Vaccin"",""Nerves"",""Blood"",""Surgery"",""Gloves"",""CPR"",""Brokenbone"",""Coffee"",""Scissors"",""Wheelchair"",""Hospital"",""Virus""]}",multi_select3,,,,,[0]
,audio-button-response,13,338272,0.0-13.0,2,1,2023-07-28 12:37:51,b2c816d5360f491c73de124b599fb059,,"Mozilla/5.0 (Macintosh; Intel Mac OS X 10_15_7) AppleWebKit/537.36 (KHTML, like Gecko) Chrome/113.0.0.0 Safari/537.36",Macintosh,Chrome,113.0.0.0,OS X,10_15_7,16358,classic_audio_2.wav,0,audio_button4,,,,,
,image-button-response,14,350108,0.0-14.0,2,1,2023-07-28 12:37:51,b2c816d5360f491c73de124b599fb059,,"Mozilla/5.0 (Macintosh; Intel Mac OS X 10_15_7) AppleWebKit/537.36 (KHTML, like Gecko) Chrome/113.0.0.0 Safari/537.36",Macintosh,Chrome,113.0.0.0,OS X,10_15_7,11834,image_4.jpg,0,image_button4,,,,,
,survey-multi-select,15,392887,0.0-15.0,2,1,2023-07-28 12:37:51,b2c816d5360f491c73de124b599fb059,,"Mozilla/5.0 (Macintosh; Intel Mac OS X 10_15_7) AppleWebKit/537.36 (KHTML, like Gecko) Chrome/113.0.0.0 Safari/537.36",Macintosh,Chrome,113.0.0.0,OS X,10_15_7,42773,,"{""image_response4"":[""Bed"",""Desk"",""Wardrobe"",""Spatula"",""Washing machine"",""Cutlery"",""Lamp"",""Window"",""Pot"",""Bottle"",""Glass"",""Hanger"",""Chair"",""Fridge"",""Mirror"",""Curtains"",""Blanket"",""Pillow""]}",multi_select4,,,,,[0]
true,fullscreen,0,3681,0.0-0.0,5,1,2023-07-28 12:38:07,b2c816d5360f491c73de124b599fb059,,Mozilla/5.0 (Macintosh; Intel Mac OS X 10.15; rv:109.0) Gecko/20100101 Firefox/115.0,Macintosh,Firefox,115.0,OS X,10.15,,,,,,,,,
,html-button-response,1,6404,0.0-1.0,5,1,2023-07-28 12:38:07,b2c816d5360f491c73de124b599fb059,,Mozilla/5.0 (Macintosh; Intel Mac OS X 10.15; rv:109.0) Gecko/20100101 Firefox/115.0,Macintosh,Firefox,115.0,OS X,10.15,2720,Welcome to the experiment of group 1,0,,,,,,
,html-button-response,2,26911,0.0-2.0,5,1,2023-07-28 12:38:07,b2c816d5360f491c73de124b599fb059,,Mozilla/5.0 (Macintosh; Intel Mac OS X 10.15; rv:109.0) Gecko/20100101 Firefox/115.0,Macintosh,Firefox,115.0,OS X,10.15,20504,"
        <p>In this experiment, you will hear 4 songs playing.</p>
        <p> After each track, you will see an image. You will have 30s to memorise as many items as possible </p>
        <p> Then, you will need to select at most 18 items you remember.</p>",0,instruction,,,,,
true,preload,3,26914,0.0-3.0,5,1,2023-07-28 12:38:07,b2c816d5360f491c73de124b599fb059,,Mozilla/5.0 (Macintosh; Intel Mac OS X 10.15; rv:109.0) Gecko/20100101 Firefox/115.0,Macintosh,Firefox,115.0,OS X,10.15,,,,,false,[],[],[],
,audio-button-response,4,46237,0.0-4.0,5,1,2023-07-28 12:38:07,b2c816d5360f491c73de124b599fb059,,Mozilla/5.0 (Macintosh; Intel Mac OS X 10.15; rv:109.0) Gecko/20100101 Firefox/115.0,Macintosh,Firefox,115.0,OS X,10.15,18864,classic_audio_1.wav,0,audio_button1,,,,,
,image-button-response,5,82104,0.0-5.0,5,1,2023-07-28 12:38:07,b2c816d5360f491c73de124b599fb059,,Mozilla/5.0 (Macintosh; Intel Mac OS X 10.15; rv:109.0) Gecko/20100101 Firefox/115.0,Macintosh,Firefox,115.0,OS X,10.15,35862,image_1.jpg,0,image_button1,,,,,
,survey-multi-select,6,155697,0.0-6.0,5,1,2023-07-28 12:38:07,b2c816d5360f491c73de124b599fb059,,Mozilla/5.0 (Macintosh; Intel Mac OS X 10.15; rv:109.0) Gecko/20100101 Firefox/115.0,Macintosh,Firefox,115.0,OS X,10.15,73579,,"{""image_response1"":[""Courgette"",""Potato"",""Bread"",""Donut"",""Orange"",""Raspberry"",""Strawberry"",""Aubergine"",""Cucumber"",""Pommegranate"",""Apple"",""Tomato"",""Croissant"",""Fries"",""Salmon"",""Bell pepper""]}",multi_select1,,,,,[0]
,audio-button-response,7,172943,0.0-7.0,5,1,2023-07-28 12:38:07,b2c816d5360f491c73de124b599fb059,,Mozilla/5.0 (Macintosh; Intel Mac OS X 10.15; rv:109.0) Gecko/20100101 Firefox/115.0,Macintosh,Firefox,115.0,OS X,10.15,16725,metal_audio_1.wav,0,audio_button2,,,,,
,image-button-response,8,207118,0.0-8.0,5,1,2023-07-28 12:38:07,b2c816d5360f491c73de124b599fb059,,Mozilla/5.0 (Macintosh; Intel Mac OS X 10.15; rv:109.0) Gecko/20100101 Firefox/115.0,Macintosh,Firefox,115.0,OS X,10.15,34169,image_2.jpg,0,image_button2,,,,,
,survey-multi-select,9,293427,0.0-9.0,5,1,2023-07-28 12:38:07,b2c816d5360f491c73de124b599fb059,,Mozilla/5.0 (Macintosh; Intel Mac OS X 10.15; rv:109.0) Gecko/20100101 Firefox/115.0,Macintosh,Firefox,115.0,OS X,10.15,86299,,"{""image_response2"":[""Clownfish"",""Elephant"",""Lion"",""Polar bear"",""Rainbow"",""Helicopter"",""Thunder"",""Boat"",""Tree"",""Dolphin""]}",multi_select2,,,,,[0]
,audio-button-response,10,311253,0.0-10.0,5,1,2023-07-28 12:38:07,b2c816d5360f491c73de124b599fb059,,Mozilla/5.0 (Macintosh; Intel Mac OS X 10.15; rv:109.0) Gecko/20100101 Firefox/115.0,Macintosh,Firefox,115.0,OS X,10.15,17376,metal_audio_2.wav,0,audio_button3,,,,,
,image-button-response,11,344206,0.0-11.0,5,1,2023-07-28 12:38:07,b2c816d5360f491c73de124b599fb059,,Mozilla/5.0 (Macintosh; Intel Mac OS X 10.15; rv:109.0) Gecko/20100101 Firefox/115.0,Macintosh,Firefox,115.0,OS X,10.15,32951,image_3.jpg,0,image_button3,,,,,
,survey-multi-select,12,377223,0.0-12.0,5,1,2023-07-28 12:38:07,b2c816d5360f491c73de124b599fb059,,Mozilla/5.0 (Macintosh; Intel Mac OS X 10.15; rv:109.0) Gecko/20100101 Firefox/115.0,Macintosh,Firefox,115.0,OS X,10.15,33009,,"{""image_response3"":[""Muscle"",""Stethoscope"",""Gloves"",""Injury"",""Coffee"",""Wheelchair"",""Hospital""]}",multi_select3,,,,,[0]
,audio-button-response,13,425315,0.0-13.0,5,1,2023-07-28 12:38:07,b2c816d5360f491c73de124b599fb059,,Mozilla/5.0 (Macintosh; Intel Mac OS X 10.15; rv:109.0) Gecko/20100101 Firefox/115.0,Macintosh,Firefox,115.0,OS X,10.15,47632,classic_audio_2.wav,0,audio_button4,,,,,
,image-button-response,14,459022,0.0-14.0,5,1,2023-07-28 12:38:07,b2c816d5360f491c73de124b599fb059,,Mozilla/5.0 (Macintosh; Intel Mac OS X 10.15; rv:109.0) Gecko/20100101 Firefox/115.0,Macintosh,Firefox,115.0,OS X,10.15,33704,image_4.jpg,0,image_button4,,,,,
,survey-multi-select,15,500835,0.0-15.0,5,1,2023-07-28 12:38:07,b2c816d5360f491c73de124b599fb059,,Mozilla/5.0 (Macintosh; Intel Mac OS X 10.15; rv:109.0) Gecko/20100101 Firefox/115.0,Macintosh,Firefox,115.0,OS X,10.15,41805,,"{""image_response4"":[""Bed"",""Desk"",""Spatula"",""Pan"",""Bottle"",""Mixer""]}",multi_select4,,,,,[0]
true,fullscreen,16,501841,0.0-16.0,5,1,2023-07-28 12:38:07,b2c816d5360f491c73de124b599fb059,,Mozilla/5.0 (Macintosh; Intel Mac OS X 10.15; rv:109.0) Gecko/20100101 Firefox/115.0,Macintosh,Firefox,115.0,OS X,10.15,,,,,,,,,
true,fullscreen,0,2339,0.0-0.0,6,1,2023-07-28 12:38:09,b2c816d5360f491c73de124b599fb059,,"Mozilla/5.0 (Windows NT 10.0; Win64; x64) AppleWebKit/537.36 (KHTML, like Gecko) Chrome/115.0.0.0 Safari/537.36",WebKit,Chrome,115.0.0.0,Windows,10.0,,,,,,,,,
,html-button-response,1,15387,0.0-1.0,6,1,2023-07-28 12:38:09,b2c816d5360f491c73de124b599fb059,,"Mozilla/5.0 (Windows NT 10.0; Win64; x64) AppleWebKit/537.36 (KHTML, like Gecko) Chrome/115.0.0.0 Safari/537.36",WebKit,Chrome,115.0.0.0,Windows,10.0,13046,Welcome to the experiment of group 1,0,,,,,,
,html-button-response,2,28375,0.0-2.0,6,1,2023-07-28 12:38:09,b2c816d5360f491c73de124b599fb059,,"Mozilla/5.0 (Windows NT 10.0; Win64; x64) AppleWebKit/537.36 (KHTML, like Gecko) Chrome/115.0.0.0 Safari/537.36",WebKit,Chrome,115.0.0.0,Windows,10.0,12988,"
        <p>In this experiment, you will hear 4 songs playing.</p>
        <p> After each track, you will see an image. You will have 30s to memorise as many items as possible </p>
        <p> Then, you will need to select at most 18 items you remember.</p>",0,instruction,,,,,
true,preload,3,28376,0.0-3.0,6,1,2023-07-28 12:38:09,b2c816d5360f491c73de124b599fb059,,"Mozilla/5.0 (Windows NT 10.0; Win64; x64) AppleWebKit/537.36 (KHTML, like Gecko) Chrome/115.0.0.0 Safari/537.36",WebKit,Chrome,115.0.0.0,Windows,10.0,,,,,false,[],[],[],
,audio-button-response,4,45784,0.0-4.0,6,1,2023-07-28 12:38:09,b2c816d5360f491c73de124b599fb059,,"Mozilla/5.0 (Windows NT 10.0; Win64; x64) AppleWebKit/537.36 (KHTML, like Gecko) Chrome/115.0.0.0 Safari/537.36",WebKit,Chrome,115.0.0.0,Windows,10.0,16848,classic_audio_1.wav,0,audio_button1,,,,,
,image-button-response,5,84581,0.0-5.0,6,1,2023-07-28 12:38:09,b2c816d5360f491c73de124b599fb059,,"Mozilla/5.0 (Windows NT 10.0; Win64; x64) AppleWebKit/537.36 (KHTML, like Gecko) Chrome/115.0.0.0 Safari/537.36",WebKit,Chrome,115.0.0.0,Windows,10.0,38794,image_1.jpg,0,image_button1,,,,,
,survey-multi-select,6,132157,0.0-6.0,6,1,2023-07-28 12:38:09,b2c816d5360f491c73de124b599fb059,,"Mozilla/5.0 (Windows NT 10.0; Win64; x64) AppleWebKit/537.36 (KHTML, like Gecko) Chrome/115.0.0.0 Safari/537.36",WebKit,Chrome,115.0.0.0,Windows,10.0,47566,,"{""image_response1"":[""Courgette"",""Potato"",""Bread"",""Donut"",""Lemon"",""Orange"",""Raspberry"",""Strawberry"",""Aubergine"",""Cucumber"",""Pommegranate"",""Apple"",""Tomato"",""Croissant"",""Fries"",""Crisps"",""Salmon"",""Bell pepper""]}",multi_select1,,,,,[0]
,audio-button-response,7,150187,0.0-7.0,6,1,2023-07-28 12:38:09,b2c816d5360f491c73de124b599fb059,,"Mozilla/5.0 (Windows NT 10.0; Win64; x64) AppleWebKit/537.36 (KHTML, like Gecko) Chrome/115.0.0.0 Safari/537.36",WebKit,Chrome,115.0.0.0,Windows,10.0,16979,metal_audio_1.wav,0,audio_button2,,,,,
,image-button-response,8,182527,0.0-8.0,6,1,2023-07-28 12:38:09,b2c816d5360f491c73de124b599fb059,,"Mozilla/5.0 (Windows NT 10.0; Win64; x64) AppleWebKit/537.36 (KHTML, like Gecko) Chrome/115.0.0.0 Safari/537.36",WebKit,Chrome,115.0.0.0,Windows,10.0,32340,image_2.jpg,0,image_button2,,,,,
,survey-multi-select,9,236128,0.0-9.0,6,1,2023-07-28 12:38:09,b2c816d5360f491c73de124b599fb059,,"Mozilla/5.0 (Windows NT 10.0; Win64; x64) AppleWebKit/537.36 (KHTML, like Gecko) Chrome/115.0.0.0 Safari/537.36",WebKit,Chrome,115.0.0.0,Windows,10.0,53594,,"{""image_response2"":[""Clownfish"",""Fire"",""Tiger"",""Elephant"",""Volcano"",""Polar bear"",""Rainbow"",""Parrot"",""Thunder"",""Tree"",""Dolphin"",""Butterfly""]}",multi_select2,,,,,[0]
,audio-button-response,10,253845,0.0-10.0,6,1,2023-07-28 12:38:09,b2c816d5360f491c73de124b599fb059,,"Mozilla/5.0 (Windows NT 10.0; Win64; x64) AppleWebKit/537.36 (KHTML, like Gecko) Chrome/115.0.0.0 Safari/537.36",WebKit,Chrome,115.0.0.0,Windows,10.0,17109,metal_audio_2.wav,0,audio_button3,,,,,
,image-button-response,11,287134,0.0-11.0,6,1,2023-07-28 12:38:09,b2c816d5360f491c73de124b599fb059,,"Mozilla/5.0 (Windows NT 10.0; Win64; x64) AppleWebKit/537.36 (KHTML, like Gecko) Chrome/115.0.0.0 Safari/537.36",WebKit,Chrome,115.0.0.0,Windows,10.0,33288,image_3.jpg,0,image_button3,,,,,
,survey-multi-select,12,337184,0.0-12.0,6,1,2023-07-28 12:38:09,b2c816d5360f491c73de124b599fb059,,"Mozilla/5.0 (Windows NT 10.0; Win64; x64) AppleWebKit/537.36 (KHTML, like Gecko) Chrome/115.0.0.0 Safari/537.36",WebKit,Chrome,115.0.0.0,Windows,10.0,50043,,"{""image_response3"":[""Heart"",""Liver"",""Bone"",""Stethoscope"",""Brain"",""Blood"",""Gloves"",""Injury"",""Coffee"",""Scissors"",""Alcohol"",""Wheelchair"",""Hospital"",""Bandage""]}",multi_select3,,,,,[0]
,audio-button-response,13,354704,0.0-13.0,6,1,2023-07-28 12:38:09,b2c816d5360f491c73de124b599fb059,,"Mozilla/5.0 (Windows NT 10.0; Win64; x64) AppleWebKit/537.36 (KHTML, like Gecko) Chrome/115.0.0.0 Safari/537.36",WebKit,Chrome,115.0.0.0,Windows,10.0,16949,classic_audio_2.wav,0,audio_button4,,,,,
,image-button-response,14,388497,0.0-14.0,6,1,2023-07-28 12:38:09,b2c816d5360f491c73de124b599fb059,,"Mozilla/5.0 (Windows NT 10.0; Win64; x64) AppleWebKit/537.36 (KHTML, like Gecko) Chrome/115.0.0.0 Safari/537.36",WebKit,Chrome,115.0.0.0,Windows,10.0,33791,image_4.jpg,0,image_button4,,,,,
,survey-multi-select,15,444221,0.0-15.0,6,1,2023-07-28 12:38:09,b2c816d5360f491c73de124b599fb059,,"Mozilla/5.0 (Windows NT 10.0; Win64; x64) AppleWebKit/537.36 (KHTML, like Gecko) Chrome/115.0.0.0 Safari/537.36",WebKit,Chrome,115.0.0.0,Windows,10.0,55718,,"{""image_response4"":[""Bed"",""Desk"",""Spatula"",""Cutlery"",""Toilet"",""Lamp"",""Pan"",""Bottle"",""Glass"",""Fridge"",""Mirror""]}",multi_select4,,,,,[0]
true,fullscreen,16,445225,0.0-16.0,6,1,2023-07-28 12:38:09,b2c816d5360f491c73de124b599fb059,,"Mozilla/5.0 (Windows NT 10.0; Win64; x64) AppleWebKit/537.36 (KHTML, like Gecko) Chrome/115.0.0.0 Safari/537.36",WebKit,Chrome,115.0.0.0,Windows,10.0,,,,,,,,,
true,fullscreen,0,3418,0.0-0.0,7,1,2023-07-28 12:38:13,b2c816d5360f491c73de124b599fb059,,Mozilla/5.0 (Windows NT 10.0; Win64; x64; rv:109.0) Gecko/20100101 Firefox/115.0,,Firefox,115.0,Windows,10.0,,,,,,,,,
,html-button-response,1,5422,0.0-1.0,7,1,2023-07-28 12:38:13,b2c816d5360f491c73de124b599fb059,,Mozilla/5.0 (Windows NT 10.0; Win64; x64; rv:109.0) Gecko/20100101 Firefox/115.0,,Firefox,115.0,Windows,10.0,1999,Welcome to the experiment of group 1,0,,,,,,
,html-button-response,2,11951,0.0-2.0,7,1,2023-07-28 12:38:13,b2c816d5360f491c73de124b599fb059,,Mozilla/5.0 (Windows NT 10.0; Win64; x64; rv:109.0) Gecko/20100101 Firefox/115.0,,Firefox,115.0,Windows,10.0,6528,"
        <p>In this experiment, you will hear 4 songs playing.</p>
        <p> After each track, you will see an image. You will have 30s to memorise as many items as possible </p>
        <p> Then, you will need to select at most 18 items you remember.</p>",0,instruction,,,,,
true,preload,3,11953,0.0-3.0,7,1,2023-07-28 12:38:13,b2c816d5360f491c73de124b599fb059,,Mozilla/5.0 (Windows NT 10.0; Win64; x64; rv:109.0) Gecko/20100101 Firefox/115.0,,Firefox,115.0,Windows,10.0,,,,,false,[],[],[],
,audio-button-response,4,29286,0.0-4.0,7,1,2023-07-28 12:38:13,b2c816d5360f491c73de124b599fb059,,Mozilla/5.0 (Windows NT 10.0; Win64; x64; rv:109.0) Gecko/20100101 Firefox/115.0,,Firefox,115.0,Windows,10.0,16480,classic_audio_1.wav,0,audio_button1,,,,,
,image-button-response,5,68388,0.0-5.0,7,1,2023-07-28 12:38:13,b2c816d5360f491c73de124b599fb059,,Mozilla/5.0 (Windows NT 10.0; Win64; x64; rv:109.0) Gecko/20100101 Firefox/115.0,,Firefox,115.0,Windows,10.0,39099,image_1.jpg,0,image_button1,,,,,
,survey-multi-select,6,97944,0.0-6.0,7,1,2023-07-28 12:38:13,b2c816d5360f491c73de124b599fb059,,Mozilla/5.0 (Windows NT 10.0; Win64; x64; rv:109.0) Gecko/20100101 Firefox/115.0,,Firefox,115.0,Windows,10.0,29543,,"{""image_response1"":[""Potato"",""Donut"",""Blueberries"",""Orange"",""Apple"",""Tomato""]}",multi_select1,,,,,[0]
,audio-button-response,7,116232,0.0-7.0,7,1,2023-07-28 12:38:13,b2c816d5360f491c73de124b599fb059,,Mozilla/5.0 (Windows NT 10.0; Win64; x64; rv:109.0) Gecko/20100101 Firefox/115.0,,Firefox,115.0,Windows,10.0,17571,metal_audio_1.wav,0,audio_button2,,,,,
,image-button-response,8,148481,0.0-8.0,7,1,2023-07-28 12:38:13,b2c816d5360f491c73de124b599fb059,,Mozilla/5.0 (Windows NT 10.0; Win64; x64; rv:109.0) Gecko/20100101 Firefox/115.0,,Firefox,115.0,Windows,10.0,32246,image_2.jpg,0,image_button2,,,,,
,survey-multi-select,9,182706,0.0-9.0,7,1,2023-07-28 12:38:13,b2c816d5360f491c73de124b599fb059,,Mozilla/5.0 (Windows NT 10.0; Win64; x64; rv:109.0) Gecko/20100101 Firefox/115.0,,Firefox,115.0,Windows,10.0,34215,,"{""image_response2"":[""Lion"",""Polar bear"",""Rainbow"",""Parrot"",""Helicopter"",""Moon"",""Dolphin"",""Butterfly""]}",multi_select2,,,,,[0]
,audio-button-response,10,200978,0.0-10.0,7,1,2023-07-28 12:38:13,b2c816d5360f491c73de124b599fb059,,Mozilla/5.0 (Windows NT 10.0; Win64; x64; rv:109.0) Gecko/20100101 Firefox/115.0,,Firefox,115.0,Windows,10.0,17389,metal_audio_2.wav,0,audio_button3,,,,,
,image-button-response,11,233152,0.0-11.0,7,1,2023-07-28 12:38:13,b2c816d5360f491c73de124b599fb059,,Mozilla/5.0 (Windows NT 10.0; Win64; x64; rv:109.0) Gecko/20100101 Firefox/115.0,,Firefox,115.0,Windows,10.0,32171,image_3.jpg,0,image_button3,,,,,
,survey-multi-select,12,265469,0.0-12.0,7,1,2023-07-28 12:38:13,b2c816d5360f491c73de124b599fb059,,Mozilla/5.0 (Windows NT 10.0; Win64; x64; rv:109.0) Gecko/20100101 Firefox/115.0,,Firefox,115.0,Windows,10.0,32307,,"{""image_response3"":[""Brain"",""Intestines"",""EEG"",""MRI""]}",multi_select3,,,,,[0]
,audio-button-response,13,285477,0.0-13.0,7,1,2023-07-28 12:38:13,b2c816d5360f491c73de124b599fb059,,Mozilla/5.0 (Windows NT 10.0; Win64; x64; rv:109.0) Gecko/20100101 Firefox/115.0,,Firefox,115.0,Windows,10.0,19120,classic_audio_2.wav,0,audio_button4,,,,,
,image-button-response,14,319131,0.0-14.0,7,1,2023-07-28 12:38:13,b2c816d5360f491c73de124b599fb059,,Mozilla/5.0 (Windows NT 10.0; Win64; x64; rv:109.0) Gecko/20100101 Firefox/115.0,,Firefox,115.0,Windows,10.0,33651,image_4.jpg,0,image_button4,,,,,
,survey-multi-select,15,341424,0.0-15.0,7,1,2023-07-28 12:38:13,b2c816d5360f491c73de124b599fb059,,Mozilla/5.0 (Windows NT 10.0; Win64; x64; rv:109.0) Gecko/20100101 Firefox/115.0,,Firefox,115.0,Windows,10.0,22283,,"{""image_response4"":[""Desk"",""Cutlery"",""Pan"",""Pot"",""Mixer""]}",multi_select4,,,,,[0]
true,fullscreen,16,342428,0.0-16.0,7,1,2023-07-28 12:38:13,b2c816d5360f491c73de124b599fb059,,Mozilla/5.0 (Windows NT 10.0; Win64; x64; rv:109.0) Gecko/20100101 Firefox/115.0,,Firefox,115.0,Windows,10.0,,,,,,,,,
true,fullscreen,0,3328,0.0-0.0,8,1,2023-07-28 12:38:29,b2c816d5360f491c73de124b599fb059,,"Mozilla/5.0 (Windows NT 10.0; Win64; x64) AppleWebKit/537.36 (KHTML, like Gecko) Chrome/115.0.0.0 Safari/537.36",WebKit,Chrome,115.0.0.0,Windows,10.0,,,,,,,,,
,html-button-response,1,5096,0.0-1.0,8,1,2023-07-28 12:38:29,b2c816d5360f491c73de124b599fb059,,"Mozilla/5.0 (Windows NT 10.0; Win64; x64) AppleWebKit/537.36 (KHTML, like Gecko) Chrome/115.0.0.0 Safari/537.36",WebKit,Chrome,115.0.0.0,Windows,10.0,1766,Welcome to the experiment of group 1,0,,,,,,
,html-button-response,2,18096,0.0-2.0,8,1,2023-07-28 12:38:29,b2c816d5360f491c73de124b599fb059,,"Mozilla/5.0 (Windows NT 10.0; Win64; x64) AppleWebKit/537.36 (KHTML, like Gecko) Chrome/115.0.0.0 Safari/537.36",WebKit,Chrome,115.0.0.0,Windows,10.0,12999,"
        <p>In this experiment, you will hear 4 songs playing.</p>
        <p> After each track, you will see an image. You will have 30s to memorise as many items as possible </p>
        <p> Then, you will need to select at most 18 items you remember.</p>",0,instruction,,,,,
true,preload,3,18097,0.0-3.0,8,1,2023-07-28 12:38:29,b2c816d5360f491c73de124b599fb059,,"Mozilla/5.0 (Windows NT 10.0; Win64; x64) AppleWebKit/537.36 (KHTML, like Gecko) Chrome/115.0.0.0 Safari/537.36",WebKit,Chrome,115.0.0.0,Windows,10.0,,,,,false,[],[],[],
,audio-button-response,4,35830,0.0-4.0,8,1,2023-07-28 12:38:29,b2c816d5360f491c73de124b599fb059,,"Mozilla/5.0 (Windows NT 10.0; Win64; x64) AppleWebKit/537.36 (KHTML, like Gecko) Chrome/115.0.0.0 Safari/537.36",WebKit,Chrome,115.0.0.0,Windows,10.0,17320,classic_audio_1.wav,0,audio_button1,,,,,
,image-button-response,5,69602,0.0-5.0,8,1,2023-07-28 12:38:29,b2c816d5360f491c73de124b599fb059,,"Mozilla/5.0 (Windows NT 10.0; Win64; x64) AppleWebKit/537.36 (KHTML, like Gecko) Chrome/115.0.0.0 Safari/537.36",WebKit,Chrome,115.0.0.0,Windows,10.0,33769,image_1.jpg,0,image_button1,,,,,
,survey-multi-select,6,116458,0.0-6.0,8,1,2023-07-28 12:38:29,b2c816d5360f491c73de124b599fb059,,"Mozilla/5.0 (Windows NT 10.0; Win64; x64) AppleWebKit/537.36 (KHTML, like Gecko) Chrome/115.0.0.0 Safari/537.36",WebKit,Chrome,115.0.0.0,Windows,10.0,46844,,"{""image_response1"":[""Potato"",""Bread"",""Donut"",""Orange"",""Raspberry"",""Aubergine"",""Cucumber"",""Pommegranate"",""Tomato"",""Salmon"",""Bell pepper""]}",multi_select1,,,,,[0]
,audio-button-response,7,137052,0.0-7.0,8,1,2023-07-28 12:38:29,b2c816d5360f491c73de124b599fb059,,"Mozilla/5.0 (Windows NT 10.0; Win64; x64) AppleWebKit/537.36 (KHTML, like Gecko) Chrome/115.0.0.0 Safari/537.36",WebKit,Chrome,115.0.0.0,Windows,10.0,20168,metal_audio_1.wav,0,audio_button2,,,,,
,image-button-response,8,169313,0.0-8.0,8,1,2023-07-28 12:38:29,b2c816d5360f491c73de124b599fb059,,"Mozilla/5.0 (Windows NT 10.0; Win64; x64) AppleWebKit/537.36 (KHTML, like Gecko) Chrome/115.0.0.0 Safari/537.36",WebKit,Chrome,115.0.0.0,Windows,10.0,32259,image_2.jpg,0,image_button2,,,,,
,survey-multi-select,9,231107,0.0-9.0,8,1,2023-07-28 12:38:29,b2c816d5360f491c73de124b599fb059,,"Mozilla/5.0 (Windows NT 10.0; Win64; x64) AppleWebKit/537.36 (KHTML, like Gecko) Chrome/115.0.0.0 Safari/537.36",WebKit,Chrome,115.0.0.0,Windows,10.0,61787,,"{""image_response2"":[""Clownfish"",""Bee"",""Fire"",""Flower"",""Volcano"",""Lion"",""Polar bear"",""Rainbow"",""Parrot"",""Helicopter"",""Thunder"",""Boat"",""Tree"",""Dolphin"",""Butterfly"",""Ant""]}",multi_select2,,,,,[0]
,audio-button-response,10,257091,0.0-10.0,8,1,2023-07-28 12:38:29,b2c816d5360f491c73de124b599fb059,,"Mozilla/5.0 (Windows NT 10.0; Win64; x64) AppleWebKit/537.36 (KHTML, like Gecko) Chrome/115.0.0.0 Safari/537.36",WebKit,Chrome,115.0.0.0,Windows,10.0,25424,metal_audio_2.wav,0,audio_button3,,,,,
,image-button-response,11,289901,0.0-11.0,8,1,2023-07-28 12:38:29,b2c816d5360f491c73de124b599fb059,,"Mozilla/5.0 (Windows NT 10.0; Win64; x64) AppleWebKit/537.36 (KHTML, like Gecko) Chrome/115.0.0.0 Safari/537.36",WebKit,Chrome,115.0.0.0,Windows,10.0,32809,image_3.jpg,0,image_button3,,,,,
,survey-multi-select,12,335526,0.0-12.0,8,1,2023-07-28 12:38:29,b2c816d5360f491c73de124b599fb059,,"Mozilla/5.0 (Windows NT 10.0; Win64; x64) AppleWebKit/537.36 (KHTML, like Gecko) Chrome/115.0.0.0 Safari/537.36",WebKit,Chrome,115.0.0.0,Windows,10.0,45617,,"{""image_response3"":[""Heart"",""Liver"",""Bone"",""Muscle"",""Stethoscope"",""Medication"",""Vaccin"",""Blood"",""Gloves"",""Coffee"",""Scissors"",""Alcohol"",""Wheelchair"",""Hospital"",""Virus""]}",multi_select3,,,,,[0]
,audio-button-response,13,353474,0.0-13.0,8,1,2023-07-28 12:38:29,b2c816d5360f491c73de124b599fb059,,"Mozilla/5.0 (Windows NT 10.0; Win64; x64) AppleWebKit/537.36 (KHTML, like Gecko) Chrome/115.0.0.0 Safari/537.36",WebKit,Chrome,115.0.0.0,Windows,10.0,17536,classic_audio_2.wav,0,audio_button4,,,,,
,image-button-response,14,382244,0.0-14.0,8,1,2023-07-28 12:38:29,b2c816d5360f491c73de124b599fb059,,"Mozilla/5.0 (Windows NT 10.0; Win64; x64) AppleWebKit/537.36 (KHTML, like Gecko) Chrome/115.0.0.0 Safari/537.36",WebKit,Chrome,115.0.0.0,Windows,10.0,28769,image_4.jpg,0,image_button4,,,,,
,survey-multi-select,15,412216,0.0-15.0,8,1,2023-07-28 12:38:29,b2c816d5360f491c73de124b599fb059,,"Mozilla/5.0 (Windows NT 10.0; Win64; x64) AppleWebKit/537.36 (KHTML, like Gecko) Chrome/115.0.0.0 Safari/537.36",WebKit,Chrome,115.0.0.0,Windows,10.0,29965,,"{""image_response4"":[""Bed"",""Desk"",""Cutlery"",""Toilet"",""Sink"",""Pan"",""Bottle"",""Oven"",""Glass"",""Mixer"",""Chair"",""Fridge"",""Pillow""]}",multi_select4,,,,,[0]
true,fullscreen,0,2573,0.0-0.0,9,1,2023-07-28 12:38:41,b2c816d5360f491c73de124b599fb059,,"Mozilla/5.0 (Macintosh; Intel Mac OS X 10_15_7) AppleWebKit/537.36 (KHTML, like Gecko) Chrome/114.0.0.0 Safari/537.36",Macintosh,Chrome,114.0.0.0,OS X,10_15_7,,,,,,,,,
,html-button-response,1,4135,0.0-1.0,9,1,2023-07-28 12:38:41,b2c816d5360f491c73de124b599fb059,,"Mozilla/5.0 (Macintosh; Intel Mac OS X 10_15_7) AppleWebKit/537.36 (KHTML, like Gecko) Chrome/114.0.0.0 Safari/537.36",Macintosh,Chrome,114.0.0.0,OS X,10_15_7,1561,Welcome to the experiment of group 1,0,,,,,,
,html-button-response,2,15312,0.0-2.0,9,1,2023-07-28 12:38:41,b2c816d5360f491c73de124b599fb059,,"Mozilla/5.0 (Macintosh; Intel Mac OS X 10_15_7) AppleWebKit/537.36 (KHTML, like Gecko) Chrome/114.0.0.0 Safari/537.36",Macintosh,Chrome,114.0.0.0,OS X,10_15_7,11176,"
        <p>In this experiment, you will hear 4 songs playing.</p>
        <p> After each track, you will see an image. You will have 30s to memorise as many items as possible </p>
        <p> Then, you will need to select at most 18 items you remember.</p>",0,instruction,,,,,
true,preload,3,15314,0.0-3.0,9,1,2023-07-28 12:38:41,b2c816d5360f491c73de124b599fb059,,"Mozilla/5.0 (Macintosh; Intel Mac OS X 10_15_7) AppleWebKit/537.36 (KHTML, like Gecko) Chrome/114.0.0.0 Safari/537.36",Macintosh,Chrome,114.0.0.0,OS X,10_15_7,,,,,false,[],[],[],
,audio-button-response,4,33360,0.0-4.0,9,1,2023-07-28 12:38:41,b2c816d5360f491c73de124b599fb059,,"Mozilla/5.0 (Macintosh; Intel Mac OS X 10_15_7) AppleWebKit/537.36 (KHTML, like Gecko) Chrome/114.0.0.0 Safari/537.36",Macintosh,Chrome,114.0.0.0,OS X,10_15_7,17560,classic_audio_1.wav,0,audio_button1,,,,,
,image-button-response,5,54224,0.0-5.0,9,1,2023-07-28 12:38:41,b2c816d5360f491c73de124b599fb059,,"Mozilla/5.0 (Macintosh; Intel Mac OS X 10_15_7) AppleWebKit/537.36 (KHTML, like Gecko) Chrome/114.0.0.0 Safari/537.36",Macintosh,Chrome,114.0.0.0,OS X,10_15_7,20862,image_1.jpg,0,image_button1,,,,,
,survey-multi-select,6,93050,0.0-6.0,9,1,2023-07-28 12:38:41,b2c816d5360f491c73de124b599fb059,,"Mozilla/5.0 (Macintosh; Intel Mac OS X 10_15_7) AppleWebKit/537.36 (KHTML, like Gecko) Chrome/114.0.0.0 Safari/537.36",Macintosh,Chrome,114.0.0.0,OS X,10_15_7,38814,,"{""image_response1"":[""Courgette"",""Potato"",""Avocado"",""Bread"",""Donut"",""Lemon"",""Orange"",""Strawberry"",""Aubergine"",""Cucumber"",""Pommegranate"",""Apple"",""Tomato"",""Croissant"",""Crisps"",""Salmon"",""Bell pepper""]}",multi_select1,,,,,[0]
,audio-button-response,7,108880,0.0-7.0,9,1,2023-07-28 12:38:41,b2c816d5360f491c73de124b599fb059,,"Mozilla/5.0 (Macintosh; Intel Mac OS X 10_15_7) AppleWebKit/537.36 (KHTML, like Gecko) Chrome/114.0.0.0 Safari/537.36",Macintosh,Chrome,114.0.0.0,OS X,10_15_7,15598,metal_audio_1.wav,0,audio_button2,,,,,
,image-button-response,8,128865,0.0-8.0,9,1,2023-07-28 12:38:41,b2c816d5360f491c73de124b599fb059,,"Mozilla/5.0 (Macintosh; Intel Mac OS X 10_15_7) AppleWebKit/537.36 (KHTML, like Gecko) Chrome/114.0.0.0 Safari/537.36",Macintosh,Chrome,114.0.0.0,OS X,10_15_7,19983,image_2.jpg,0,image_button2,,,,,
,survey-multi-select,9,175539,0.0-9.0,9,1,2023-07-28 12:38:41,b2c816d5360f491c73de124b599fb059,,"Mozilla/5.0 (Macintosh; Intel Mac OS X 10_15_7) AppleWebKit/537.36 (KHTML, like Gecko) Chrome/114.0.0.0 Safari/537.36",Macintosh,Chrome,114.0.0.0,OS X,10_15_7,46662,,"{""image_response2"":[""Clownfish"",""Bee"",""Flower"",""Elephant"",""Volcano"",""Shark"",""Polar bear"",""Rainbow"",""Parrot"",""Helicopter"",""Thunder"",""Boat"",""Moon"",""Dolphin"",""Butterfly"",""Ant""]}",multi_select2,,,,,[0]
,audio-button-response,10,192001,0.0-10.0,9,1,2023-07-28 12:38:41,b2c816d5360f491c73de124b599fb059,,"Mozilla/5.0 (Macintosh; Intel Mac OS X 10_15_7) AppleWebKit/537.36 (KHTML, like Gecko) Chrome/114.0.0.0 Safari/537.36",Macintosh,Chrome,114.0.0.0,OS X,10_15_7,16208,metal_audio_2.wav,0,audio_button3,,,,,
,image-button-response,11,233145,0.0-11.0,9,1,2023-07-28 12:38:41,b2c816d5360f491c73de124b599fb059,,"Mozilla/5.0 (Macintosh; Intel Mac OS X 10_15_7) AppleWebKit/537.36 (KHTML, like Gecko) Chrome/114.0.0.0 Safari/537.36",Macintosh,Chrome,114.0.0.0,OS X,10_15_7,41141,image_3.jpg,0,image_button3,,,,,
,survey-multi-select,12,246753,0.0-12.0,9,1,2023-07-28 12:38:41,b2c816d5360f491c73de124b599fb059,,"Mozilla/5.0 (Macintosh; Intel Mac OS X 10_15_7) AppleWebKit/537.36 (KHTML, like Gecko) Chrome/114.0.0.0 Safari/537.36",Macintosh,Chrome,114.0.0.0,OS X,10_15_7,13601,,"{""image_response3"":[""Heart"",""Liver"",""Muscle"",""Kidney"",""Brain"",""Intestines"",""Blood"",""Surgery"",""Brokenbone"",""Coffee"",""Alcohol"",""Virus"",""Bandage""]}",multi_select3,,,,,[0]
,audio-button-response,13,263441,0.0-13.0,9,1,2023-07-28 12:38:41,b2c816d5360f491c73de124b599fb059,,"Mozilla/5.0 (Macintosh; Intel Mac OS X 10_15_7) AppleWebKit/537.36 (KHTML, like Gecko) Chrome/114.0.0.0 Safari/537.36",Macintosh,Chrome,114.0.0.0,OS X,10_15_7,16248,classic_audio_2.wav,0,audio_button4,,,,,
,image-button-response,14,286921,0.0-14.0,9,1,2023-07-28 12:38:41,b2c816d5360f491c73de124b599fb059,,"Mozilla/5.0 (Macintosh; Intel Mac OS X 10_15_7) AppleWebKit/537.36 (KHTML, like Gecko) Chrome/114.0.0.0 Safari/537.36",Macintosh,Chrome,114.0.0.0,OS X,10_15_7,23479,image_4.jpg,0,image_button4,,,,,
,survey-multi-select,15,317227,0.0-15.0,9,1,2023-07-28 12:38:41,b2c816d5360f491c73de124b599fb059,,"Mozilla/5.0 (Macintosh; Intel Mac OS X 10_15_7) AppleWebKit/537.36 (KHTML, like Gecko) Chrome/114.0.0.0 Safari/537.36",Macintosh,Chrome,114.0.0.0,OS X,10_15_7,30296,,"{""image_response4"":[""Bed"",""Spatula"",""Cutlery"",""Toilet"",""Bottle"",""Toothbrush"",""Hanger"",""Mirror"",""Pillow""]}",multi_select4,,,,,[0]
