success;trial_type;trial_index;time_elapsed;internal_node_id;run_id;condition;recorded_at;source_code_version;ip;user_agent;device;browser;browser_version;platform;platform_version;rt;stimulus;response;task;timeout;failed_images;failed_audio;failed_video;slider_start
true;fullscreen;0;2335;0.0-0.0;9;1;2023-07-28 12:44:47;57e32b63417d99daabf003b405236eda;;"Mozilla/5.0 (Macintosh; Intel Mac OS X 10_15_7) AppleWebKit/537.36 (KHTML, like Gecko) Chrome/114.0.0.0 Safari/537.36";Macintosh;Chrome;114.0.0.0;OS X;10_15_7;;;;;;;;;
;html-button-response;1;3439;0.0-1.0;9;1;2023-07-28 12:44:47;57e32b63417d99daabf003b405236eda;;"Mozilla/5.0 (Macintosh; Intel Mac OS X 10_15_7) AppleWebKit/537.36 (KHTML, like Gecko) Chrome/114.0.0.0 Safari/537.36";Macintosh;Chrome;114.0.0.0;OS X;10_15_7;1102;Welcome to the experiment;0;;;;;;
;html-button-response;2;6911;0.0-2.0;9;1;2023-07-28 12:44:47;57e32b63417d99daabf003b405236eda;;"Mozilla/5.0 (Macintosh; Intel Mac OS X 10_15_7) AppleWebKit/537.36 (KHTML, like Gecko) Chrome/114.0.0.0 Safari/537.36";Macintosh;Chrome;114.0.0.0;OS X;10_15_7;3471;"<p>In this experiment, you will hear 6 excerpts of varying rhythmic complexity.</p>
        <p> At the end of each track, you must rate the level of your enjoyment.</p>";0;instruction;;;;;
true;preload;3;6912;0.0-3.0;9;1;2023-07-28 12:44:47;57e32b63417d99daabf003b405236eda;;"Mozilla/5.0 (Macintosh; Intel Mac OS X 10_15_7) AppleWebKit/537.36 (KHTML, like Gecko) Chrome/114.0.0.0 Safari/537.36";Macintosh;Chrome;114.0.0.0;OS X;10_15_7;;;;;false;[];[];[];
;audio-slider-response;4;16219;0.0-4.0-0.0;9;1;2023-07-28 12:44:47;57e32b63417d99daabf003b405236eda;;"Mozilla/5.0 (Macintosh; Intel Mac OS X 10_15_7) AppleWebKit/537.36 (KHTML, like Gecko) Chrome/114.0.0.0 Safari/537.36";Macintosh;Chrome;114.0.0.0;OS X;10_15_7;9205;high_complex_1.wav;91;audio_slider;;;;;50
;audio-slider-response;5;26376;0.0-4.0-0.1;9;1;2023-07-28 12:44:47;57e32b63417d99daabf003b405236eda;;"Mozilla/5.0 (Macintosh; Intel Mac OS X 10_15_7) AppleWebKit/537.36 (KHTML, like Gecko) Chrome/114.0.0.0 Safari/537.36";Macintosh;Chrome;114.0.0.0;OS X;10_15_7;10064;mid_complex_2.wav;92;audio_slider;;;;;50
;audio-slider-response;6;36018;0.0-4.0-0.2;9;1;2023-07-28 12:44:47;57e32b63417d99daabf003b405236eda;;"Mozilla/5.0 (Macintosh; Intel Mac OS X 10_15_7) AppleWebKit/537.36 (KHTML, like Gecko) Chrome/114.0.0.0 Safari/537.36";Macintosh;Chrome;114.0.0.0;OS X;10_15_7;9547;low_complex_2.wav;61;audio_slider;;;;;50
;audio-slider-response;7;46018;0.0-4.0-0.3;9;1;2023-07-28 12:44:47;57e32b63417d99daabf003b405236eda;;"Mozilla/5.0 (Macintosh; Intel Mac OS X 10_15_7) AppleWebKit/537.36 (KHTML, like Gecko) Chrome/114.0.0.0 Safari/537.36";Macintosh;Chrome;114.0.0.0;OS X;10_15_7;9893;mid_complex_1.wav;75;audio_slider;;;;;50
;audio-slider-response;8;55308;0.0-4.0-0.4;9;1;2023-07-28 12:44:47;57e32b63417d99daabf003b405236eda;;"Mozilla/5.0 (Macintosh; Intel Mac OS X 10_15_7) AppleWebKit/537.36 (KHTML, like Gecko) Chrome/114.0.0.0 Safari/537.36";Macintosh;Chrome;114.0.0.0;OS X;10_15_7;9195;high_complex_2.wav;78;audio_slider;;;;;50
;audio-slider-response;9;64607;0.0-4.0-0.5;9;1;2023-07-28 12:44:47;57e32b63417d99daabf003b405236eda;;"Mozilla/5.0 (Macintosh; Intel Mac OS X 10_15_7) AppleWebKit/537.36 (KHTML, like Gecko) Chrome/114.0.0.0 Safari/537.36";Macintosh;Chrome;114.0.0.0;OS X;10_15_7;9205;low_complex_1.wav;85;audio_slider;;;;;50
;html-button-response;10;72401;0.0-5.0;9;1;2023-07-28 12:44:47;57e32b63417d99daabf003b405236eda;;"Mozilla/5.0 (Macintosh; Intel Mac OS X 10_15_7) AppleWebKit/537.36 (KHTML, like Gecko) Chrome/114.0.0.0 Safari/537.36";Macintosh;Chrome;114.0.0.0;OS X;10_15_7;7793;<p>On the next slide we will ask you to define your <b>musical experience</b>. <p></p> <b>Non-musician</b> means you don't regularly play an instrument. <p></p> <b>Amateur musician</b> means you regularly play an instrument as a hobby, but you do not get paid. <p></p> <b>Music student</b> means you are engaged in formal music education. <p></p> <b>Semi-professional musician</b> means you get paid to play, but it is not your primary source of income. <p></p> <b>Professional musican</b> means that playing music is your primary source of income.  </p>;0;instruction2;;;;;
;html-button-response;11;73687;0.0-6.0;9;1;2023-07-28 12:44:47;57e32b63417d99daabf003b405236eda;;"Mozilla/5.0 (Macintosh; Intel Mac OS X 10_15_7) AppleWebKit/537.36 (KHTML, like Gecko) Chrome/114.0.0.0 Safari/537.36";Macintosh;Chrome;114.0.0.0;OS X;10_15_7;1285;<p>How would you define your musical experience?</p>;1;text_button_response;;;;;
true;fullscreen;12;74695;0.0-7.0;9;1;2023-07-28 12:44:47;57e32b63417d99daabf003b405236eda;;"Mozilla/5.0 (Macintosh; Intel Mac OS X 10_15_7) AppleWebKit/537.36 (KHTML, like Gecko) Chrome/114.0.0.0 Safari/537.36";Macintosh;Chrome;114.0.0.0;OS X;10_15_7;;;;;;;;;
;html-keyboard-response;13;76942;0.0-8.0;9;1;2023-07-28 12:44:47;57e32b63417d99daabf003b405236eda;;"Mozilla/5.0 (Macintosh; Intel Mac OS X 10_15_7) AppleWebKit/537.36 (KHTML, like Gecko) Chrome/114.0.0.0 Safari/537.36";Macintosh;Chrome;114.0.0.0;OS X;10_15_7;2244;Thank you for your participation. You may now close the window.;meta;;;;;;
true;fullscreen;0;2481;0.0-0.0;15;1;2023-07-28 12:47:05;57e32b63417d99daabf003b405236eda;;"Mozilla/5.0 (Macintosh; Intel Mac OS X 10_15_7) AppleWebKit/605.1.15 (KHTML, like Gecko) Version/15.4 Safari/605.1.15";Macintosh;Safari;15.4;OS X;10_15_7;;;;;;;;;
;html-button-response;1;3781;0.0-1.0;15;1;2023-07-28 12:47:05;57e32b63417d99daabf003b405236eda;;"Mozilla/5.0 (Macintosh; Intel Mac OS X 10_15_7) AppleWebKit/605.1.15 (KHTML, like Gecko) Version/15.4 Safari/605.1.15";Macintosh;Safari;15.4;OS X;10_15_7;1295;Welcome to the experiment;0;;;;;;
;html-button-response;2;9394;0.0-2.0;15;1;2023-07-28 12:47:05;57e32b63417d99daabf003b405236eda;;"Mozilla/5.0 (Macintosh; Intel Mac OS X 10_15_7) AppleWebKit/605.1.15 (KHTML, like Gecko) Version/15.4 Safari/605.1.15";Macintosh;Safari;15.4;OS X;10_15_7;5611;"<p>In this experiment, you will hear 6 excerpts of varying rhythmic complexity.</p>
        <p> At the end of each track, you must rate the level of your enjoyment.</p>";0;instruction;;;;;
true;preload;3;9397;0.0-3.0;15;1;2023-07-28 12:47:05;57e32b63417d99daabf003b405236eda;;"Mozilla/5.0 (Macintosh; Intel Mac OS X 10_15_7) AppleWebKit/605.1.15 (KHTML, like Gecko) Version/15.4 Safari/605.1.15";Macintosh;Safari;15.4;OS X;10_15_7;;;;;false;[];[];[];
;audio-slider-response;4;21247;0.0-4.0-0.0;15;1;2023-07-28 12:47:05;57e32b63417d99daabf003b405236eda;;"Mozilla/5.0 (Macintosh; Intel Mac OS X 10_15_7) AppleWebKit/605.1.15 (KHTML, like Gecko) Version/15.4 Safari/605.1.15";Macintosh;Safari;15.4;OS X;10_15_7;10762;low_complex_1.wav;60;audio_slider;;;;;50
;audio-slider-response;5;33976;0.0-4.0-0.1;15;1;2023-07-28 12:47:05;57e32b63417d99daabf003b405236eda;;"Mozilla/5.0 (Macintosh; Intel Mac OS X 10_15_7) AppleWebKit/605.1.15 (KHTML, like Gecko) Version/15.4 Safari/605.1.15";Macintosh;Safari;15.4;OS X;10_15_7;12153;high_complex_2.wav;72;audio_slider;;;;;50
;audio-slider-response;6;45526;0.0-4.0-0.2;15;1;2023-07-28 12:47:05;57e32b63417d99daabf003b405236eda;;"Mozilla/5.0 (Macintosh; Intel Mac OS X 10_15_7) AppleWebKit/605.1.15 (KHTML, like Gecko) Version/15.4 Safari/605.1.15";Macintosh;Safari;15.4;OS X;10_15_7;11009;low_complex_2.wav;58;audio_slider;;;;;50
;audio-slider-response;7;56791;0.0-4.0-0.3;15;1;2023-07-28 12:47:05;57e32b63417d99daabf003b405236eda;;"Mozilla/5.0 (Macintosh; Intel Mac OS X 10_15_7) AppleWebKit/605.1.15 (KHTML, like Gecko) Version/15.4 Safari/605.1.15";Macintosh;Safari;15.4;OS X;10_15_7;10478;mid_complex_2.wav;87;audio_slider;;;;;50
;audio-slider-response;8;68825;0.0-4.0-0.4;15;1;2023-07-28 12:47:05;57e32b63417d99daabf003b405236eda;;"Mozilla/5.0 (Macintosh; Intel Mac OS X 10_15_7) AppleWebKit/605.1.15 (KHTML, like Gecko) Version/15.4 Safari/605.1.15";Macintosh;Safari;15.4;OS X;10_15_7;11613;high_complex_1.wav;71;audio_slider;;;;;50
;audio-slider-response;9;80191;0.0-4.0-0.5;15;1;2023-07-28 12:47:05;57e32b63417d99daabf003b405236eda;;"Mozilla/5.0 (Macintosh; Intel Mac OS X 10_15_7) AppleWebKit/605.1.15 (KHTML, like Gecko) Version/15.4 Safari/605.1.15";Macintosh;Safari;15.4;OS X;10_15_7;10638;mid_complex_1.wav;90;audio_slider;;;;;50
;html-button-response;10;98744;0.0-5.0;15;1;2023-07-28 12:47:05;57e32b63417d99daabf003b405236eda;;"Mozilla/5.0 (Macintosh; Intel Mac OS X 10_15_7) AppleWebKit/605.1.15 (KHTML, like Gecko) Version/15.4 Safari/605.1.15";Macintosh;Safari;15.4;OS X;10_15_7;18549;<p>On the next slide we will ask you to define your <b>musical experience</b>. <p></p> <b>Non-musician</b> means you don't regularly play an instrument. <p></p> <b>Amateur musician</b> means you regularly play an instrument as a hobby, but you do not get paid. <p></p> <b>Music student</b> means you are engaged in formal music education. <p></p> <b>Semi-professional musician</b> means you get paid to play, but it is not your primary source of income. <p></p> <b>Professional musican</b> means that playing music is your primary source of income.  </p>;0;instruction2;;;;;
;html-button-response;11;102257;0.0-6.0;15;1;2023-07-28 12:47:05;57e32b63417d99daabf003b405236eda;;"Mozilla/5.0 (Macintosh; Intel Mac OS X 10_15_7) AppleWebKit/605.1.15 (KHTML, like Gecko) Version/15.4 Safari/605.1.15";Macintosh;Safari;15.4;OS X;10_15_7;3510;<p>How would you define your musical experience?</p>;2;text_button_response;;;;;
true;fullscreen;12;103261;0.0-7.0;15;1;2023-07-28 12:47:05;57e32b63417d99daabf003b405236eda;;"Mozilla/5.0 (Macintosh; Intel Mac OS X 10_15_7) AppleWebKit/605.1.15 (KHTML, like Gecko) Version/15.4 Safari/605.1.15";Macintosh;Safari;15.4;OS X;10_15_7;;;;;;;;;
;html-keyboard-response;13;107592;0.0-8.0;15;1;2023-07-28 12:47:05;57e32b63417d99daabf003b405236eda;;"Mozilla/5.0 (Macintosh; Intel Mac OS X 10_15_7) AppleWebKit/605.1.15 (KHTML, like Gecko) Version/15.4 Safari/605.1.15";Macintosh;Safari;15.4;OS X;10_15_7;4328;Thank you for your participation. You may now close the window.;escape;;;;;;
true;fullscreen;0;3466;0.0-0.0;16;1;2023-07-28 12:51:33;57e32b63417d99daabf003b405236eda;;"Mozilla/5.0 (Windows NT 10.0; Win64; x64) AppleWebKit/537.36 (KHTML, like Gecko) Chrome/114.0.0.0 Safari/537.36";WebKit;Chrome;114.0.0.0;Windows;10.0;;;;;;;;;
;html-button-response;1;6468;0.0-1.0;16;1;2023-07-28 12:51:33;57e32b63417d99daabf003b405236eda;;"Mozilla/5.0 (Windows NT 10.0; Win64; x64) AppleWebKit/537.36 (KHTML, like Gecko) Chrome/114.0.0.0 Safari/537.36";WebKit;Chrome;114.0.0.0;Windows;10.0;2998;Welcome to the experiment;0;;;;;;
;html-button-response;2;13530;0.0-2.0;16;1;2023-07-28 12:51:33;57e32b63417d99daabf003b405236eda;;"Mozilla/5.0 (Windows NT 10.0; Win64; x64) AppleWebKit/537.36 (KHTML, like Gecko) Chrome/114.0.0.0 Safari/537.36";WebKit;Chrome;114.0.0.0;Windows;10.0;7060;"<p>In this experiment, you will hear 6 excerpts of varying rhythmic complexity.</p>
        <p> At the end of each track, you must rate the level of your enjoyment.</p>";0;instruction;;;;;
true;preload;3;13532;0.0-3.0;16;1;2023-07-28 12:51:33;57e32b63417d99daabf003b405236eda;;"Mozilla/5.0 (Windows NT 10.0; Win64; x64) AppleWebKit/537.36 (KHTML, like Gecko) Chrome/114.0.0.0 Safari/537.36";WebKit;Chrome;114.0.0.0;Windows;10.0;;;;;false;[];[];[];
true;fullscreen;0;1910;0.0-0.0;18;1;2023-07-28 12:53:00;57e32b63417d99daabf003b405236eda;;"Mozilla/5.0 (Windows NT 10.0; Win64; x64) AppleWebKit/537.36 (KHTML, like Gecko) Chrome/115.0.0.0 Safari/537.36";WebKit;Chrome;115.0.0.0;Windows;10.0;;;;;;;;;
;html-button-response;1;2820;0.0-1.0;18;1;2023-07-28 12:53:00;57e32b63417d99daabf003b405236eda;;"Mozilla/5.0 (Windows NT 10.0; Win64; x64) AppleWebKit/537.36 (KHTML, like Gecko) Chrome/115.0.0.0 Safari/537.36";WebKit;Chrome;115.0.0.0;Windows;10.0;908;Welcome to the experiment;0;;;;;;
;html-button-response;2;3601;0.0-2.0;18;1;2023-07-28 12:53:00;57e32b63417d99daabf003b405236eda;;"Mozilla/5.0 (Windows NT 10.0; Win64; x64) AppleWebKit/537.36 (KHTML, like Gecko) Chrome/115.0.0.0 Safari/537.36";WebKit;Chrome;115.0.0.0;Windows;10.0;780;"<p>In this experiment, you will hear 6 excerpts of varying rhythmic complexity.</p>
        <p> At the end of each track, you must rate the level of your enjoyment.</p>";0;instruction;;;;;
true;preload;3;3602;0.0-3.0;18;1;2023-07-28 12:53:00;57e32b63417d99daabf003b405236eda;;"Mozilla/5.0 (Windows NT 10.0; Win64; x64) AppleWebKit/537.36 (KHTML, like Gecko) Chrome/115.0.0.0 Safari/537.36";WebKit;Chrome;115.0.0.0;Windows;10.0;;;;;false;[];[];[];
;audio-slider-response;4;13375;0.0-4.0-0.0;18;1;2023-07-28 12:53:00;57e32b63417d99daabf003b405236eda;;"Mozilla/5.0 (Windows NT 10.0; Win64; x64) AppleWebKit/537.36 (KHTML, like Gecko) Chrome/115.0.0.0 Safari/537.36";WebKit;Chrome;115.0.0.0;Windows;10.0;9520;mid_complex_2.wav;85;audio_slider;;;;;50
;audio-slider-response;5;23320;0.0-4.0-0.1;18;1;2023-07-28 12:53:00;57e32b63417d99daabf003b405236eda;;"Mozilla/5.0 (Windows NT 10.0; Win64; x64) AppleWebKit/537.36 (KHTML, like Gecko) Chrome/115.0.0.0 Safari/537.36";WebKit;Chrome;115.0.0.0;Windows;10.0;9728;mid_complex_1.wav;83;audio_slider;;;;;50
;audio-slider-response;6;34230;0.0-4.0-0.2;18;1;2023-07-28 12:53:00;57e32b63417d99daabf003b405236eda;;"Mozilla/5.0 (Windows NT 10.0; Win64; x64) AppleWebKit/537.36 (KHTML, like Gecko) Chrome/115.0.0.0 Safari/537.36";WebKit;Chrome;115.0.0.0;Windows;10.0;10691;low_complex_2.wav;48;audio_slider;;;;;50
;audio-slider-response;7;43911;0.0-4.0-0.3;18;1;2023-07-28 12:53:00;57e32b63417d99daabf003b405236eda;;"Mozilla/5.0 (Windows NT 10.0; Win64; x64) AppleWebKit/537.36 (KHTML, like Gecko) Chrome/115.0.0.0 Safari/537.36";WebKit;Chrome;115.0.0.0;Windows;10.0;9451;low_complex_1.wav;61;audio_slider;;;;;50
;audio-slider-response;8;54241;0.0-4.0-0.4;18;1;2023-07-28 12:53:00;57e32b63417d99daabf003b405236eda;;"Mozilla/5.0 (Windows NT 10.0; Win64; x64) AppleWebKit/537.36 (KHTML, like Gecko) Chrome/115.0.0.0 Safari/537.36";WebKit;Chrome;115.0.0.0;Windows;10.0;10048;high_complex_1.wav;40;audio_slider;;;;;50
;audio-slider-response;9;64823;0.0-4.0-0.5;18;1;2023-07-28 12:53:00;57e32b63417d99daabf003b405236eda;;"Mozilla/5.0 (Windows NT 10.0; Win64; x64) AppleWebKit/537.36 (KHTML, like Gecko) Chrome/115.0.0.0 Safari/537.36";WebKit;Chrome;115.0.0.0;Windows;10.0;10349;high_complex_2.wav;38;audio_slider;;;;;50
;html-button-response;10;68851;0.0-5.0;18;1;2023-07-28 12:53:00;57e32b63417d99daabf003b405236eda;;"Mozilla/5.0 (Windows NT 10.0; Win64; x64) AppleWebKit/537.36 (KHTML, like Gecko) Chrome/115.0.0.0 Safari/537.36";WebKit;Chrome;115.0.0.0;Windows;10.0;4027;<p>On the next slide we will ask you to define your <b>musical experience</b>. <p></p> <b>Non-musician</b> means you don't regularly play an instrument. <p></p> <b>Amateur musician</b> means you regularly play an instrument as a hobby, but you do not get paid. <p></p> <b>Music student</b> means you are engaged in formal music education. <p></p> <b>Semi-professional musician</b> means you get paid to play, but it is not your primary source of income. <p></p> <b>Professional musican</b> means that playing music is your primary source of income.  </p>;0;instruction2;;;;;
;html-button-response;11;71649;0.0-6.0;18;1;2023-07-28 12:53:00;57e32b63417d99daabf003b405236eda;;"Mozilla/5.0 (Windows NT 10.0; Win64; x64) AppleWebKit/537.36 (KHTML, like Gecko) Chrome/115.0.0.0 Safari/537.36";WebKit;Chrome;115.0.0.0;Windows;10.0;2797;<p>How would you define your musical experience?</p>;1;text_button_response;;;;;
true;fullscreen;12;72664;0.0-7.0;18;1;2023-07-28 12:53:00;57e32b63417d99daabf003b405236eda;;"Mozilla/5.0 (Windows NT 10.0; Win64; x64) AppleWebKit/537.36 (KHTML, like Gecko) Chrome/115.0.0.0 Safari/537.36";WebKit;Chrome;115.0.0.0;Windows;10.0;;;;;;;;;
true;fullscreen;0;2460;0.0-0.0;2;1;2023-07-28 12:38:34;57e32b63417d99daabf003b405236eda;;"Mozilla/5.0 (Macintosh; Intel Mac OS X 10_15_7) AppleWebKit/605.1.15 (KHTML, like Gecko) Version/16.1 Safari/605.1.15";Macintosh;Safari;16.1;OS X;10_15_7;;;;;;;;;
;html-button-response;1;4144;0.0-1.0;2;1;2023-07-28 12:38:34;57e32b63417d99daabf003b405236eda;;"Mozilla/5.0 (Macintosh; Intel Mac OS X 10_15_7) AppleWebKit/605.1.15 (KHTML, like Gecko) Version/16.1 Safari/605.1.15";Macintosh;Safari;16.1;OS X;10_15_7;1678;Welcome to the experiment;0;;;;;;
;html-button-response;2;8510;0.0-2.0;2;1;2023-07-28 12:38:34;57e32b63417d99daabf003b405236eda;;"Mozilla/5.0 (Macintosh; Intel Mac OS X 10_15_7) AppleWebKit/605.1.15 (KHTML, like Gecko) Version/16.1 Safari/605.1.15";Macintosh;Safari;16.1;OS X;10_15_7;4363;"<p>In this experiment, you will hear 6 excerpts of varying rhythmic complexity.</p>
        <p> At the end of each track, you must rate the level of your enjoyment.</p>";0;instruction;;;;;
true;preload;3;8512;0.0-3.0;2;1;2023-07-28 12:38:34;57e32b63417d99daabf003b405236eda;;"Mozilla/5.0 (Macintosh; Intel Mac OS X 10_15_7) AppleWebKit/605.1.15 (KHTML, like Gecko) Version/16.1 Safari/605.1.15";Macintosh;Safari;16.1;OS X;10_15_7;;;;;false;[];[];[];
;audio-slider-response;4;19536;0.0-4.0-0.0;2;1;2023-07-28 12:38:34;57e32b63417d99daabf003b405236eda;;"Mozilla/5.0 (Macintosh; Intel Mac OS X 10_15_7) AppleWebKit/605.1.15 (KHTML, like Gecko) Version/16.1 Safari/605.1.15";Macintosh;Safari;16.1;OS X;10_15_7;10643;mid_complex_1.wav;60;audio_slider;;;;;50
;audio-slider-response;5;32708;0.0-4.0-0.1;2;1;2023-07-28 12:38:34;57e32b63417d99daabf003b405236eda;;"Mozilla/5.0 (Macintosh; Intel Mac OS X 10_15_7) AppleWebKit/605.1.15 (KHTML, like Gecko) Version/16.1 Safari/605.1.15";Macintosh;Safari;16.1;OS X;10_15_7;12891;low_complex_1.wav;55;audio_slider;;;;;50
;audio-slider-response;6;43343;0.0-4.0-0.2;2;1;2023-07-28 12:38:34;57e32b63417d99daabf003b405236eda;;"Mozilla/5.0 (Macintosh; Intel Mac OS X 10_15_7) AppleWebKit/605.1.15 (KHTML, like Gecko) Version/16.1 Safari/605.1.15";Macintosh;Safari;16.1;OS X;10_15_7;10371;mid_complex_2.wav;67;audio_slider;;;;;50
;audio-slider-response;7;53016;0.0-4.0-0.3;2;1;2023-07-28 12:38:34;57e32b63417d99daabf003b405236eda;;"Mozilla/5.0 (Macintosh; Intel Mac OS X 10_15_7) AppleWebKit/605.1.15 (KHTML, like Gecko) Version/16.1 Safari/605.1.15";Macintosh;Safari;16.1;OS X;10_15_7;9456;high_complex_1.wav;47;audio_slider;;;;;50
;audio-slider-response;8;62717;0.0-4.0-0.4;2;1;2023-07-28 12:38:34;57e32b63417d99daabf003b405236eda;;"Mozilla/5.0 (Macintosh; Intel Mac OS X 10_15_7) AppleWebKit/605.1.15 (KHTML, like Gecko) Version/16.1 Safari/605.1.15";Macintosh;Safari;16.1;OS X;10_15_7;9344;high_complex_2.wav;43;audio_slider;;;;;50
;audio-slider-response;9;72334;0.0-4.0-0.5;2;1;2023-07-28 12:38:34;57e32b63417d99daabf003b405236eda;;"Mozilla/5.0 (Macintosh; Intel Mac OS X 10_15_7) AppleWebKit/605.1.15 (KHTML, like Gecko) Version/16.1 Safari/605.1.15";Macintosh;Safari;16.1;OS X;10_15_7;9392;low_complex_2.wav;50;audio_slider;;;;;50
;html-button-response;10;88213;0.0-5.0;2;1;2023-07-28 12:38:34;57e32b63417d99daabf003b405236eda;;"Mozilla/5.0 (Macintosh; Intel Mac OS X 10_15_7) AppleWebKit/605.1.15 (KHTML, like Gecko) Version/16.1 Safari/605.1.15";Macintosh;Safari;16.1;OS X;10_15_7;15876;<p>On the next slide we will ask you to define your <b>musical experience</b>. <p></p> <b>Non-musician</b> means you don't regularly play an instrument. <p></p> <b>Amateur musician</b> means you regularly play an instrument as a hobby, but you do not get paid. <p></p> <b>Music student</b> means you are engaged in formal music education. <p></p> <b>Semi-professional musician</b> means you get paid to play, but it is not your primary source of income. <p></p> <b>Professional musican</b> means that playing music is your primary source of income.  </p>;0;instruction2;;;;;
true;fullscreen;0;5178;0.0-0.0;10;1;2023-07-28 12:44:54;57e32b63417d99daabf003b405236eda;;"Mozilla/5.0 (Macintosh; Intel Mac OS X 10.15; rv:109.0) Gecko/20100101 Firefox/114.0";Macintosh;Firefox;114.0;OS X;10.15;;;;;;;;;
;html-button-response;1;6179;0.0-1.0;10;1;2023-07-28 12:44:54;57e32b63417d99daabf003b405236eda;;"Mozilla/5.0 (Macintosh; Intel Mac OS X 10.15; rv:109.0) Gecko/20100101 Firefox/114.0";Macintosh;Firefox;114.0;OS X;10.15;997;Welcome to the experiment;0;;;;;;
;html-button-response;2;15213;0.0-2.0;10;1;2023-07-28 12:44:54;57e32b63417d99daabf003b405236eda;;"Mozilla/5.0 (Macintosh; Intel Mac OS X 10.15; rv:109.0) Gecko/20100101 Firefox/114.0";Macintosh;Firefox;114.0;OS X;10.15;9030;"<p>In this experiment, you will hear 6 excerpts of varying rhythmic complexity.</p>
        <p> At the end of each track, you must rate the level of your enjoyment.</p>";0;instruction;;;;;
true;preload;3;15216;0.0-3.0;10;1;2023-07-28 12:44:54;57e32b63417d99daabf003b405236eda;;"Mozilla/5.0 (Macintosh; Intel Mac OS X 10.15; rv:109.0) Gecko/20100101 Firefox/114.0";Macintosh;Firefox;114.0;OS X;10.15;;;;;false;[];[];[];
;audio-slider-response;4;29045;0.0-4.0-0.0;10;1;2023-07-28 12:44:54;57e32b63417d99daabf003b405236eda;;"Mozilla/5.0 (Macintosh; Intel Mac OS X 10.15; rv:109.0) Gecko/20100101 Firefox/114.0";Macintosh;Firefox;114.0;OS X;10.15;13665;high_complex_1.wav;23;audio_slider;;;;;50
;audio-slider-response;5;39397;0.0-4.0-0.1;10;1;2023-07-28 12:44:54;57e32b63417d99daabf003b405236eda;;"Mozilla/5.0 (Macintosh; Intel Mac OS X 10.15; rv:109.0) Gecko/20100101 Firefox/114.0";Macintosh;Firefox;114.0;OS X;10.15;10194;high_complex_2.wav;23;audio_slider;;;;;50
;audio-slider-response;6;51253;0.0-4.0-0.2;10;1;2023-07-28 12:44:54;57e32b63417d99daabf003b405236eda;;"Mozilla/5.0 (Macintosh; Intel Mac OS X 10.15; rv:109.0) Gecko/20100101 Firefox/114.0";Macintosh;Firefox;114.0;OS X;10.15;11726;low_complex_2.wav;17;audio_slider;;;;;50
;audio-slider-response;7;61343;0.0-4.0-0.3;10;1;2023-07-28 12:44:54;57e32b63417d99daabf003b405236eda;;"Mozilla/5.0 (Macintosh; Intel Mac OS X 10.15; rv:109.0) Gecko/20100101 Firefox/114.0";Macintosh;Firefox;114.0;OS X;10.15;9927;low_complex_1.wav;57;audio_slider;;;;;50
;audio-slider-response;8;70673;0.0-4.0-0.4;10;1;2023-07-28 12:44:54;57e32b63417d99daabf003b405236eda;;"Mozilla/5.0 (Macintosh; Intel Mac OS X 10.15; rv:109.0) Gecko/20100101 Firefox/114.0";Macintosh;Firefox;114.0;OS X;10.15;9195;mid_complex_2.wav;69;audio_slider;;;;;50
;audio-slider-response;9;80455;0.0-4.0-0.5;10;1;2023-07-28 12:44:54;57e32b63417d99daabf003b405236eda;;"Mozilla/5.0 (Macintosh; Intel Mac OS X 10.15; rv:109.0) Gecko/20100101 Firefox/114.0";Macintosh;Firefox;114.0;OS X;10.15;9660;mid_complex_1.wav;69;audio_slider;;;;;50
;html-button-response;10;98341;0.0-5.0;10;1;2023-07-28 12:44:54;57e32b63417d99daabf003b405236eda;;"Mozilla/5.0 (Macintosh; Intel Mac OS X 10.15; rv:109.0) Gecko/20100101 Firefox/114.0";Macintosh;Firefox;114.0;OS X;10.15;17884;<p>On the next slide we will ask you to define your <b>musical experience</b>. <p></p> <b>Non-musician</b> means you don't regularly play an instrument. <p></p> <b>Amateur musician</b> means you regularly play an instrument as a hobby, but you do not get paid. <p></p> <b>Music student</b> means you are engaged in formal music education. <p></p> <b>Semi-professional musician</b> means you get paid to play, but it is not your primary source of income. <p></p> <b>Professional musican</b> means that playing music is your primary source of income.  </p>;0;instruction2;;;;;
true;fullscreen;0;4739;0.0-0.0;14;1;2023-07-28 12:46:47;57e32b63417d99daabf003b405236eda;;"Mozilla/5.0 (Macintosh; Intel Mac OS X 10.15; rv:109.0) Gecko/20100101 Firefox/115.0";Macintosh;Firefox;115.0;OS X;10.15;;;;;;;;;
;html-button-response;1;7182;0.0-1.0;14;1;2023-07-28 12:46:47;57e32b63417d99daabf003b405236eda;;"Mozilla/5.0 (Macintosh; Intel Mac OS X 10.15; rv:109.0) Gecko/20100101 Firefox/115.0";Macintosh;Firefox;115.0;OS X;10.15;2440;Welcome to the experiment;0;;;;;;
;html-button-response;2;15540;0.0-2.0;14;1;2023-07-28 12:46:47;57e32b63417d99daabf003b405236eda;;"Mozilla/5.0 (Macintosh; Intel Mac OS X 10.15; rv:109.0) Gecko/20100101 Firefox/115.0";Macintosh;Firefox;115.0;OS X;10.15;8356;"<p>In this experiment, you will hear 6 excerpts of varying rhythmic complexity.</p>
        <p> At the end of each track, you must rate the level of your enjoyment.</p>";0;instruction;;;;;
true;preload;3;15544;0.0-3.0;14;1;2023-07-28 12:46:47;57e32b63417d99daabf003b405236eda;;"Mozilla/5.0 (Macintosh; Intel Mac OS X 10.15; rv:109.0) Gecko/20100101 Firefox/115.0";Macintosh;Firefox;115.0;OS X;10.15;;;;;false;[];[];[];
;audio-slider-response;4;26827;0.0-4.0-0.0;14;1;2023-07-28 12:46:47;57e32b63417d99daabf003b405236eda;;"Mozilla/5.0 (Macintosh; Intel Mac OS X 10.15; rv:109.0) Gecko/20100101 Firefox/115.0";Macintosh;Firefox;115.0;OS X;10.15;10789;low_complex_1.wav;1;audio_slider;;;;;50
;audio-slider-response;5;40511;0.0-4.0-0.1;14;1;2023-07-28 12:46:47;57e32b63417d99daabf003b405236eda;;"Mozilla/5.0 (Macintosh; Intel Mac OS X 10.15; rv:109.0) Gecko/20100101 Firefox/115.0";Macintosh;Firefox;115.0;OS X;10.15;13248;high_complex_1.wav;30;audio_slider;;;;;50
;audio-slider-response;6;51582;0.0-4.0-0.2;14;1;2023-07-28 12:46:47;57e32b63417d99daabf003b405236eda;;"Mozilla/5.0 (Macintosh; Intel Mac OS X 10.15; rv:109.0) Gecko/20100101 Firefox/115.0";Macintosh;Firefox;115.0;OS X;10.15;10539;mid_complex_1.wav;35;audio_slider;;;;;50
;audio-slider-response;7;61740;0.0-4.0-0.3;14;1;2023-07-28 12:46:47;57e32b63417d99daabf003b405236eda;;"Mozilla/5.0 (Macintosh; Intel Mac OS X 10.15; rv:109.0) Gecko/20100101 Firefox/115.0";Macintosh;Firefox;115.0;OS X;10.15;9728;low_complex_2.wav;12;audio_slider;;;;;50
;audio-slider-response;8;72047;0.0-4.0-0.4;14;1;2023-07-28 12:46:47;57e32b63417d99daabf003b405236eda;;"Mozilla/5.0 (Macintosh; Intel Mac OS X 10.15; rv:109.0) Gecko/20100101 Firefox/115.0";Macintosh;Firefox;115.0;OS X;10.15;9781;high_complex_2.wav;52;audio_slider;;;;;50
;audio-slider-response;9;82881;0.0-4.0-0.5;14;1;2023-07-28 12:46:47;57e32b63417d99daabf003b405236eda;;"Mozilla/5.0 (Macintosh; Intel Mac OS X 10.15; rv:109.0) Gecko/20100101 Firefox/115.0";Macintosh;Firefox;115.0;OS X;10.15;10069;mid_complex_2.wav;52;audio_slider;;;;;50
;html-button-response;10;98895;0.0-5.0;14;1;2023-07-28 12:46:47;57e32b63417d99daabf003b405236eda;;"Mozilla/5.0 (Macintosh; Intel Mac OS X 10.15; rv:109.0) Gecko/20100101 Firefox/115.0";Macintosh;Firefox;115.0;OS X;10.15;16009;<p>On the next slide we will ask you to define your <b>musical experience</b>. <p></p> <b>Non-musician</b> means you don't regularly play an instrument. <p></p> <b>Amateur musician</b> means you regularly play an instrument as a hobby, but you do not get paid. <p></p> <b>Music student</b> means you are engaged in formal music education. <p></p> <b>Semi-professional musician</b> means you get paid to play, but it is not your primary source of income. <p></p> <b>Professional musican</b> means that playing music is your primary source of income.  </p>;0;instruction2;;;;;
;html-button-response;11;100247;0.0-6.0;14;1;2023-07-28 12:46:47;57e32b63417d99daabf003b405236eda;;"Mozilla/5.0 (Macintosh; Intel Mac OS X 10.15; rv:109.0) Gecko/20100101 Firefox/115.0";Macintosh;Firefox;115.0;OS X;10.15;1349;<p>How would you define your musical experience?</p>;3;text_button_response;;;;;
true;fullscreen;12;101254;0.0-7.0;14;1;2023-07-28 12:46:47;57e32b63417d99daabf003b405236eda;;"Mozilla/5.0 (Macintosh; Intel Mac OS X 10.15; rv:109.0) Gecko/20100101 Firefox/115.0";Macintosh;Firefox;115.0;OS X;10.15;;;;;;;;;
true;fullscreen;0;5773;0.0-0.0;13;1;2023-07-28 12:46:05;57e32b63417d99daabf003b405236eda;;"Mozilla/5.0 (Macintosh; Intel Mac OS X 10_15_7) AppleWebKit/605.1.15 (KHTML, like Gecko) Version/15.6.1 Safari/605.1.15";Macintosh;Safari;15.6.1;OS X;10_15_7;;;;;;;;;
;html-button-response;1;7138;0.0-1.0;13;1;2023-07-28 12:46:05;57e32b63417d99daabf003b405236eda;;"Mozilla/5.0 (Macintosh; Intel Mac OS X 10_15_7) AppleWebKit/605.1.15 (KHTML, like Gecko) Version/15.6.1 Safari/605.1.15";Macintosh;Safari;15.6.1;OS X;10_15_7;1359;Welcome to the experiment;0;;;;;;
;html-button-response;2;16704;0.0-2.0;13;1;2023-07-28 12:46:05;57e32b63417d99daabf003b405236eda;;"Mozilla/5.0 (Macintosh; Intel Mac OS X 10_15_7) AppleWebKit/605.1.15 (KHTML, like Gecko) Version/15.6.1 Safari/605.1.15";Macintosh;Safari;15.6.1;OS X;10_15_7;9562;"<p>In this experiment, you will hear 6 excerpts of varying rhythmic complexity.</p>
        <p> At the end of each track, you must rate the level of your enjoyment.</p>";0;instruction;;;;;
true;preload;3;16707;0.0-3.0;13;1;2023-07-28 12:46:05;57e32b63417d99daabf003b405236eda;;"Mozilla/5.0 (Macintosh; Intel Mac OS X 10_15_7) AppleWebKit/605.1.15 (KHTML, like Gecko) Version/15.6.1 Safari/605.1.15";Macintosh;Safari;15.6.1;OS X;10_15_7;;;;;false;[];[];[];
;audio-slider-response;4;28230;0.0-4.0-0.0;13;1;2023-07-28 12:46:05;57e32b63417d99daabf003b405236eda;;"Mozilla/5.0 (Macintosh; Intel Mac OS X 10_15_7) AppleWebKit/605.1.15 (KHTML, like Gecko) Version/15.6.1 Safari/605.1.15";Macintosh;Safari;15.6.1;OS X;10_15_7;11175;high_complex_2.wav;74;audio_slider;;;;;50
;audio-slider-response;5;39060;0.0-4.0-0.1;13;1;2023-07-28 12:46:05;57e32b63417d99daabf003b405236eda;;"Mozilla/5.0 (Macintosh; Intel Mac OS X 10_15_7) AppleWebKit/605.1.15 (KHTML, like Gecko) Version/15.6.1 Safari/605.1.15";Macintosh;Safari;15.6.1;OS X;10_15_7;10127;high_complex_1.wav;60;audio_slider;;;;;50
;audio-slider-response;6;49404;0.0-4.0-0.2;13;1;2023-07-28 12:46:05;57e32b63417d99daabf003b405236eda;;"Mozilla/5.0 (Macintosh; Intel Mac OS X 10_15_7) AppleWebKit/605.1.15 (KHTML, like Gecko) Version/15.6.1 Safari/605.1.15";Macintosh;Safari;15.6.1;OS X;10_15_7;10060;low_complex_2.wav;59;audio_slider;;;;;50
;audio-slider-response;7;60239;0.0-4.0-0.3;13;1;2023-07-28 12:46:05;57e32b63417d99daabf003b405236eda;;"Mozilla/5.0 (Macintosh; Intel Mac OS X 10_15_7) AppleWebKit/605.1.15 (KHTML, like Gecko) Version/15.6.1 Safari/605.1.15";Macintosh;Safari;15.6.1;OS X;10_15_7;10307;mid_complex_1.wav;70;audio_slider;;;;;50
;audio-slider-response;8;70345;0.0-4.0-0.4;13;1;2023-07-28 12:46:05;57e32b63417d99daabf003b405236eda;;"Mozilla/5.0 (Macintosh; Intel Mac OS X 10_15_7) AppleWebKit/605.1.15 (KHTML, like Gecko) Version/15.6.1 Safari/605.1.15";Macintosh;Safari;15.6.1;OS X;10_15_7;9819;low_complex_1.wav;57;audio_slider;;;;;50
;audio-slider-response;9;81158;0.0-4.0-0.5;13;1;2023-07-28 12:46:05;57e32b63417d99daabf003b405236eda;;"Mozilla/5.0 (Macintosh; Intel Mac OS X 10_15_7) AppleWebKit/605.1.15 (KHTML, like Gecko) Version/15.6.1 Safari/605.1.15";Macintosh;Safari;15.6.1;OS X;10_15_7;10487;mid_complex_2.wav;74;audio_slider;;;;;50
;html-button-response;10;87942;0.0-5.0;13;1;2023-07-28 12:46:05;57e32b63417d99daabf003b405236eda;;"Mozilla/5.0 (Macintosh; Intel Mac OS X 10_15_7) AppleWebKit/605.1.15 (KHTML, like Gecko) Version/15.6.1 Safari/605.1.15";Macintosh;Safari;15.6.1;OS X;10_15_7;6781;<p>On the next slide we will ask you to define your <b>musical experience</b>. <p></p> <b>Non-musician</b> means you don't regularly play an instrument. <p></p> <b>Amateur musician</b> means you regularly play an instrument as a hobby, but you do not get paid. <p></p> <b>Music student</b> means you are engaged in formal music education. <p></p> <b>Semi-professional musician</b> means you get paid to play, but it is not your primary source of income. <p></p> <b>Professional musican</b> means that playing music is your primary source of income.  </p>;0;instruction2;;;;;
true;fullscreen;0;2577;0.0-0.0;12;1;2023-07-28 12:45:48;57e32b63417d99daabf003b405236eda;;"Mozilla/5.0 (Windows NT 10.0; Win64; x64) AppleWebKit/537.36 (KHTML, like Gecko) Chrome/115.0.0.0 Safari/537.36";WebKit;Chrome;115.0.0.0;Windows;10.0;;;;;;;;;
;html-button-response;1;4506;0.0-1.0;12;1;2023-07-28 12:45:48;57e32b63417d99daabf003b405236eda;;"Mozilla/5.0 (Windows NT 10.0; Win64; x64) AppleWebKit/537.36 (KHTML, like Gecko) Chrome/115.0.0.0 Safari/537.36";WebKit;Chrome;115.0.0.0;Windows;10.0;1928;Welcome to the experiment;0;;;;;;
;html-button-response;2;10775;0.0-2.0;12;1;2023-07-28 12:45:48;57e32b63417d99daabf003b405236eda;;"Mozilla/5.0 (Windows NT 10.0; Win64; x64) AppleWebKit/537.36 (KHTML, like Gecko) Chrome/115.0.0.0 Safari/537.36";WebKit;Chrome;115.0.0.0;Windows;10.0;6268;"<p>In this experiment, you will hear 6 excerpts of varying rhythmic complexity.</p>
        <p> At the end of each track, you must rate the level of your enjoyment.</p>";0;instruction;;;;;
true;preload;3;10776;0.0-3.0;12;1;2023-07-28 12:45:48;57e32b63417d99daabf003b405236eda;;"Mozilla/5.0 (Windows NT 10.0; Win64; x64) AppleWebKit/537.36 (KHTML, like Gecko) Chrome/115.0.0.0 Safari/537.36";WebKit;Chrome;115.0.0.0;Windows;10.0;;;;;false;[];[];[];
;audio-slider-response;4;25743;0.0-4.0-0.0;12;1;2023-07-28 12:45:48;57e32b63417d99daabf003b405236eda;;"Mozilla/5.0 (Windows NT 10.0; Win64; x64) AppleWebKit/537.36 (KHTML, like Gecko) Chrome/115.0.0.0 Safari/537.36";WebKit;Chrome;115.0.0.0;Windows;10.0;14299;mid_complex_2.wav;44;audio_slider;;;;;50
;audio-slider-response;5;37288;0.0-4.0-0.1;12;1;2023-07-28 12:45:48;57e32b63417d99daabf003b405236eda;;"Mozilla/5.0 (Windows NT 10.0; Win64; x64) AppleWebKit/537.36 (KHTML, like Gecko) Chrome/115.0.0.0 Safari/537.36";WebKit;Chrome;115.0.0.0;Windows;10.0;11101;low_complex_1.wav;66;audio_slider;;;;;50
;audio-slider-response;6;48687;0.0-4.0-0.2;12;1;2023-07-28 12:45:48;57e32b63417d99daabf003b405236eda;;"Mozilla/5.0 (Windows NT 10.0; Win64; x64) AppleWebKit/537.36 (KHTML, like Gecko) Chrome/115.0.0.0 Safari/537.36";WebKit;Chrome;115.0.0.0;Windows;10.0;10901;low_complex_2.wav;19;audio_slider;;;;;50
;audio-slider-response;7;61829;0.0-4.0-0.3;12;1;2023-07-28 12:45:48;57e32b63417d99daabf003b405236eda;;"Mozilla/5.0 (Windows NT 10.0; Win64; x64) AppleWebKit/537.36 (KHTML, like Gecko) Chrome/115.0.0.0 Safari/537.36";WebKit;Chrome;115.0.0.0;Windows;10.0;12771;mid_complex_1.wav;85;audio_slider;;;;;50
;audio-slider-response;8;71962;0.0-4.0-0.4;12;1;2023-07-28 12:45:48;57e32b63417d99daabf003b405236eda;;"Mozilla/5.0 (Windows NT 10.0; Win64; x64) AppleWebKit/537.36 (KHTML, like Gecko) Chrome/115.0.0.0 Safari/537.36";WebKit;Chrome;115.0.0.0;Windows;10.0;9771;high_complex_2.wav;81;audio_slider;;;;;50
;audio-slider-response;9;84543;0.0-4.0-0.5;12;1;2023-07-28 12:45:48;57e32b63417d99daabf003b405236eda;;"Mozilla/5.0 (Windows NT 10.0; Win64; x64) AppleWebKit/537.36 (KHTML, like Gecko) Chrome/115.0.0.0 Safari/537.36";WebKit;Chrome;115.0.0.0;Windows;10.0;11880;high_complex_1.wav;33;audio_slider;;;;;50
;html-button-response;10;100663;0.0-5.0;12;1;2023-07-28 12:45:48;57e32b63417d99daabf003b405236eda;;"Mozilla/5.0 (Windows NT 10.0; Win64; x64) AppleWebKit/537.36 (KHTML, like Gecko) Chrome/115.0.0.0 Safari/537.36";WebKit;Chrome;115.0.0.0;Windows;10.0;16119;<p>On the next slide we will ask you to define your <b>musical experience</b>. <p></p> <b>Non-musician</b> means you don't regularly play an instrument. <p></p> <b>Amateur musician</b> means you regularly play an instrument as a hobby, but you do not get paid. <p></p> <b>Music student</b> means you are engaged in formal music education. <p></p> <b>Semi-professional musician</b> means you get paid to play, but it is not your primary source of income. <p></p> <b>Professional musican</b> means that playing music is your primary source of income.  </p>;0;instruction2;;;;;
true;fullscreen;0;2583;0.0-0.0;11;1;2023-07-28 12:45:39;57e32b63417d99daabf003b405236eda;;"Mozilla/5.0 (Windows NT 10.0; Win64; x64) AppleWebKit/537.36 (KHTML, like Gecko) Chrome/115.0.0.0 Safari/537.36";WebKit;Chrome;115.0.0.0;Windows;10.0;;;;;;;;;
;html-button-response;1;3801;0.0-1.0;11;1;2023-07-28 12:45:39;57e32b63417d99daabf003b405236eda;;"Mozilla/5.0 (Windows NT 10.0; Win64; x64) AppleWebKit/537.36 (KHTML, like Gecko) Chrome/115.0.0.0 Safari/537.36";WebKit;Chrome;115.0.0.0;Windows;10.0;1215;Welcome to the experiment;0;;;;;;
;html-button-response;2;8554;0.0-2.0;11;1;2023-07-28 12:45:39;57e32b63417d99daabf003b405236eda;;"Mozilla/5.0 (Windows NT 10.0; Win64; x64) AppleWebKit/537.36 (KHTML, like Gecko) Chrome/115.0.0.0 Safari/537.36";WebKit;Chrome;115.0.0.0;Windows;10.0;4751;"<p>In this experiment, you will hear 6 excerpts of varying rhythmic complexity.</p>
        <p> At the end of each track, you must rate the level of your enjoyment.</p>";0;instruction;;;;;
true;preload;3;8558;0.0-3.0;11;1;2023-07-28 12:45:39;57e32b63417d99daabf003b405236eda;;"Mozilla/5.0 (Windows NT 10.0; Win64; x64) AppleWebKit/537.36 (KHTML, like Gecko) Chrome/115.0.0.0 Safari/537.36";WebKit;Chrome;115.0.0.0;Windows;10.0;;;;;false;[];[];[];
;audio-slider-response;4;21142;0.0-4.0-0.0;11;1;2023-07-28 12:45:39;57e32b63417d99daabf003b405236eda;;"Mozilla/5.0 (Windows NT 10.0; Win64; x64) AppleWebKit/537.36 (KHTML, like Gecko) Chrome/115.0.0.0 Safari/537.36";WebKit;Chrome;115.0.0.0;Windows;10.0;12232;low_complex_2.wav;42;audio_slider;;;;;50
;audio-slider-response;5;31502;0.0-4.0-0.1;11;1;2023-07-28 12:45:39;57e32b63417d99daabf003b405236eda;;"Mozilla/5.0 (Windows NT 10.0; Win64; x64) AppleWebKit/537.36 (KHTML, like Gecko) Chrome/115.0.0.0 Safari/537.36";WebKit;Chrome;115.0.0.0;Windows;10.0;9952;high_complex_2.wav;65;audio_slider;;;;;50
;audio-slider-response;6;42095;0.0-4.0-0.2;11;1;2023-07-28 12:45:39;57e32b63417d99daabf003b405236eda;;"Mozilla/5.0 (Windows NT 10.0; Win64; x64) AppleWebKit/537.36 (KHTML, like Gecko) Chrome/115.0.0.0 Safari/537.36";WebKit;Chrome;115.0.0.0;Windows;10.0;10248;mid_complex_2.wav;80;audio_slider;;;;;50
;audio-slider-response;7;52166;0.0-4.0-0.3;11;1;2023-07-28 12:45:39;57e32b63417d99daabf003b405236eda;;"Mozilla/5.0 (Windows NT 10.0; Win64; x64) AppleWebKit/537.36 (KHTML, like Gecko) Chrome/115.0.0.0 Safari/537.36";WebKit;Chrome;115.0.0.0;Windows;10.0;9656;mid_complex_1.wav;37;audio_slider;;;;;50
;audio-slider-response;8;62854;0.0-4.0-0.4;11;1;2023-07-28 12:45:39;57e32b63417d99daabf003b405236eda;;"Mozilla/5.0 (Windows NT 10.0; Win64; x64) AppleWebKit/537.36 (KHTML, like Gecko) Chrome/115.0.0.0 Safari/537.36";WebKit;Chrome;115.0.0.0;Windows;10.0;10160;high_complex_1.wav;37;audio_slider;;;;;50
;audio-slider-response;9;74215;0.0-4.0-0.5;11;1;2023-07-28 12:45:39;57e32b63417d99daabf003b405236eda;;"Mozilla/5.0 (Windows NT 10.0; Win64; x64) AppleWebKit/537.36 (KHTML, like Gecko) Chrome/115.0.0.0 Safari/537.36";WebKit;Chrome;115.0.0.0;Windows;10.0;10992;low_complex_1.wav;31;audio_slider;;;;;50
;html-button-response;10;82503;0.0-5.0;11;1;2023-07-28 12:45:39;57e32b63417d99daabf003b405236eda;;"Mozilla/5.0 (Windows NT 10.0; Win64; x64) AppleWebKit/537.36 (KHTML, like Gecko) Chrome/115.0.0.0 Safari/537.36";WebKit;Chrome;115.0.0.0;Windows;10.0;8287;<p>On the next slide we will ask you to define your <b>musical experience</b>. <p></p> <b>Non-musician</b> means you don't regularly play an instrument. <p></p> <b>Amateur musician</b> means you regularly play an instrument as a hobby, but you do not get paid. <p></p> <b>Music student</b> means you are engaged in formal music education. <p></p> <b>Semi-professional musician</b> means you get paid to play, but it is not your primary source of income. <p></p> <b>Professional musican</b> means that playing music is your primary source of income.  </p>;0;instruction2;;;;;
true;fullscreen;0;3835;0.0-0.0;3;1;2023-07-28 12:42:14;57e32b63417d99daabf003b405236eda;;"Mozilla/5.0 (Windows NT 10.0; Win64; x64) AppleWebKit/537.36 (KHTML, like Gecko) Chrome/114.0.0.0 Safari/537.36";WebKit;Chrome;114.0.0.0;Windows;10.0;;;;;;;;;
;html-button-response;1;5845;0.0-1.0;3;1;2023-07-28 12:42:14;57e32b63417d99daabf003b405236eda;;"Mozilla/5.0 (Windows NT 10.0; Win64; x64) AppleWebKit/537.36 (KHTML, like Gecko) Chrome/114.0.0.0 Safari/537.36";WebKit;Chrome;114.0.0.0;Windows;10.0;2008;Welcome to the experiment;0;;;;;;
;html-button-response;2;11238;0.0-2.0;3;1;2023-07-28 12:42:14;57e32b63417d99daabf003b405236eda;;"Mozilla/5.0 (Windows NT 10.0; Win64; x64) AppleWebKit/537.36 (KHTML, like Gecko) Chrome/114.0.0.0 Safari/537.36";WebKit;Chrome;114.0.0.0;Windows;10.0;5392;"<p>In this experiment, you will hear 6 excerpts of varying rhythmic complexity.</p>
        <p> At the end of each track, you must rate the level of your enjoyment.</p>";0;instruction;;;;;
true;preload;3;11239;0.0-3.0;3;1;2023-07-28 12:42:14;57e32b63417d99daabf003b405236eda;;"Mozilla/5.0 (Windows NT 10.0; Win64; x64) AppleWebKit/537.36 (KHTML, like Gecko) Chrome/114.0.0.0 Safari/537.36";WebKit;Chrome;114.0.0.0;Windows;10.0;;;;;false;[];[];[];
;audio-slider-response;4;22841;0.0-4.0-0.0;3;1;2023-07-28 12:42:14;57e32b63417d99daabf003b405236eda;;"Mozilla/5.0 (Windows NT 10.0; Win64; x64) AppleWebKit/537.36 (KHTML, like Gecko) Chrome/114.0.0.0 Safari/537.36";WebKit;Chrome;114.0.0.0;Windows;10.0;11240;low_complex_1.wav;40;audio_slider;;;;;50
;audio-slider-response;5;34566;0.0-4.0-0.1;3;1;2023-07-28 12:42:14;57e32b63417d99daabf003b405236eda;;"Mozilla/5.0 (Windows NT 10.0; Win64; x64) AppleWebKit/537.36 (KHTML, like Gecko) Chrome/114.0.0.0 Safari/537.36";WebKit;Chrome;114.0.0.0;Windows;10.0;11440;low_complex_2.wav;10;audio_slider;;;;;50
;audio-slider-response;6;45995;0.0-4.0-0.2;3;1;2023-07-28 12:42:14;57e32b63417d99daabf003b405236eda;;"Mozilla/5.0 (Windows NT 10.0; Win64; x64) AppleWebKit/537.36 (KHTML, like Gecko) Chrome/114.0.0.0 Safari/537.36";WebKit;Chrome;114.0.0.0;Windows;10.0;11128;mid_complex_2.wav;100;audio_slider;;;;;50
;audio-slider-response;7;56469;0.0-4.0-0.3;3;1;2023-07-28 12:42:14;57e32b63417d99daabf003b405236eda;;"Mozilla/5.0 (Windows NT 10.0; Win64; x64) AppleWebKit/537.36 (KHTML, like Gecko) Chrome/114.0.0.0 Safari/537.36";WebKit;Chrome;114.0.0.0;Windows;10.0;10011;high_complex_2.wav;100;audio_slider;;;;;50
;audio-slider-response;8;66776;0.0-4.0-0.4;3;1;2023-07-28 12:42:14;57e32b63417d99daabf003b405236eda;;"Mozilla/5.0 (Windows NT 10.0; Win64; x64) AppleWebKit/537.36 (KHTML, like Gecko) Chrome/114.0.0.0 Safari/537.36";WebKit;Chrome;114.0.0.0;Windows;10.0;10051;mid_complex_1.wav;66;audio_slider;;;;;50
;audio-slider-response;9;76841;0.0-4.0-0.5;3;1;2023-07-28 12:42:14;57e32b63417d99daabf003b405236eda;;"Mozilla/5.0 (Windows NT 10.0; Win64; x64) AppleWebKit/537.36 (KHTML, like Gecko) Chrome/114.0.0.0 Safari/537.36";WebKit;Chrome;114.0.0.0;Windows;10.0;9779;high_complex_1.wav;100;audio_slider;;;;;50
;html-button-response;10;84456;0.0-5.0;3;1;2023-07-28 12:42:14;57e32b63417d99daabf003b405236eda;;"Mozilla/5.0 (Windows NT 10.0; Win64; x64) AppleWebKit/537.36 (KHTML, like Gecko) Chrome/114.0.0.0 Safari/537.36";WebKit;Chrome;114.0.0.0;Windows;10.0;7613;<p>On the next slide we will ask you to define your <b>musical experience</b>. <p></p> <b>Non-musician</b> means you don't regularly play an instrument. <p></p> <b>Amateur musician</b> means you regularly play an instrument as a hobby, but you do not get paid. <p></p> <b>Music student</b> means you are engaged in formal music education. <p></p> <b>Semi-professional musician</b> means you get paid to play, but it is not your primary source of income. <p></p> <b>Professional musican</b> means that playing music is your primary source of income.  </p>;0;instruction2;;;;;
;html-button-response;11;87393;0.0-6.0;3;1;2023-07-28 12:42:14;57e32b63417d99daabf003b405236eda;;"Mozilla/5.0 (Windows NT 10.0; Win64; x64) AppleWebKit/537.36 (KHTML, like Gecko) Chrome/114.0.0.0 Safari/537.36";WebKit;Chrome;114.0.0.0;Windows;10.0;2934;<p>How would you define your musical experience?</p>;4;text_button_response;;;;;
true;fullscreen;12;88407;0.0-7.0;3;1;2023-07-28 12:42:14;57e32b63417d99daabf003b405236eda;;"Mozilla/5.0 (Windows NT 10.0; Win64; x64) AppleWebKit/537.36 (KHTML, like Gecko) Chrome/114.0.0.0 Safari/537.36";WebKit;Chrome;114.0.0.0;Windows;10.0;;;;;;;;;
true;fullscreen;0;2312;0.0-0.0;4;1;2023-07-28 12:43:35;57e32b63417d99daabf003b405236eda;;"Mozilla/5.0 (Windows NT 10.0; Win64; x64) AppleWebKit/537.36 (KHTML, like Gecko) Chrome/114.0.0.0 Safari/537.36";WebKit;Chrome;114.0.0.0;Windows;10.0;;;;;;;;;
;html-button-response;1;3320;0.0-1.0;4;1;2023-07-28 12:43:35;57e32b63417d99daabf003b405236eda;;"Mozilla/5.0 (Windows NT 10.0; Win64; x64) AppleWebKit/537.36 (KHTML, like Gecko) Chrome/114.0.0.0 Safari/537.36";WebKit;Chrome;114.0.0.0;Windows;10.0;1006;Welcome to the experiment;0;;;;;;
;html-button-response;2;6484;0.0-2.0;4;1;2023-07-28 12:43:35;57e32b63417d99daabf003b405236eda;;"Mozilla/5.0 (Windows NT 10.0; Win64; x64) AppleWebKit/537.36 (KHTML, like Gecko) Chrome/114.0.0.0 Safari/537.36";WebKit;Chrome;114.0.0.0;Windows;10.0;3160;"<p>In this experiment, you will hear 6 excerpts of varying rhythmic complexity.</p>
        <p> At the end of each track, you must rate the level of your enjoyment.</p>";0;instruction;;;;;
true;preload;3;6484;0.0-3.0;4;1;2023-07-28 12:43:35;57e32b63417d99daabf003b405236eda;;"Mozilla/5.0 (Windows NT 10.0; Win64; x64) AppleWebKit/537.36 (KHTML, like Gecko) Chrome/114.0.0.0 Safari/537.36";WebKit;Chrome;114.0.0.0;Windows;10.0;;;;;false;[];[];[];
;audio-slider-response;4;17380;0.0-4.0-0.0;4;1;2023-07-28 12:43:35;57e32b63417d99daabf003b405236eda;;"Mozilla/5.0 (Windows NT 10.0; Win64; x64) AppleWebKit/537.36 (KHTML, like Gecko) Chrome/114.0.0.0 Safari/537.36";WebKit;Chrome;114.0.0.0;Windows;10.0;10600;high_complex_2.wav;56;audio_slider;;;;;50
;audio-slider-response;5;30581;0.0-4.0-0.1;4;1;2023-07-28 12:43:35;57e32b63417d99daabf003b405236eda;;"Mozilla/5.0 (Windows NT 10.0; Win64; x64) AppleWebKit/537.36 (KHTML, like Gecko) Chrome/114.0.0.0 Safari/537.36";WebKit;Chrome;114.0.0.0;Windows;10.0;13040;low_complex_1.wav;59;audio_slider;;;;;50
;audio-slider-response;6;41639;0.0-4.0-0.2;4;1;2023-07-28 12:43:35;57e32b63417d99daabf003b405236eda;;"Mozilla/5.0 (Windows NT 10.0; Win64; x64) AppleWebKit/537.36 (KHTML, like Gecko) Chrome/114.0.0.0 Safari/537.36";WebKit;Chrome;114.0.0.0;Windows;10.0;10840;low_complex_2.wav;0;audio_slider;;;;;50
;audio-slider-response;7;53525;0.0-4.0-0.3;4;1;2023-07-28 12:43:35;57e32b63417d99daabf003b405236eda;;"Mozilla/5.0 (Windows NT 10.0; Win64; x64) AppleWebKit/537.36 (KHTML, like Gecko) Chrome/114.0.0.0 Safari/537.36";WebKit;Chrome;114.0.0.0;Windows;10.0;11699;mid_complex_1.wav;91;audio_slider;;;;;50
;audio-slider-response;8;64706;0.0-4.0-0.4;4;1;2023-07-28 12:43:35;57e32b63417d99daabf003b405236eda;;"Mozilla/5.0 (Windows NT 10.0; Win64; x64) AppleWebKit/537.36 (KHTML, like Gecko) Chrome/114.0.0.0 Safari/537.36";WebKit;Chrome;114.0.0.0;Windows;10.0;10920;mid_complex_2.wav;96;audio_slider;;;;;50
;audio-slider-response;9;75152;0.0-4.0-0.5;4;1;2023-07-28 12:43:35;57e32b63417d99daabf003b405236eda;;"Mozilla/5.0 (Windows NT 10.0; Win64; x64) AppleWebKit/537.36 (KHTML, like Gecko) Chrome/114.0.0.0 Safari/537.36";WebKit;Chrome;114.0.0.0;Windows;10.0;10251;high_complex_1.wav;68;audio_slider;;;;;50
;html-button-response;10;84726;0.0-5.0;4;1;2023-07-28 12:43:35;57e32b63417d99daabf003b405236eda;;"Mozilla/5.0 (Windows NT 10.0; Win64; x64) AppleWebKit/537.36 (KHTML, like Gecko) Chrome/114.0.0.0 Safari/537.36";WebKit;Chrome;114.0.0.0;Windows;10.0;9571;<p>On the next slide we will ask you to define your <b>musical experience</b>. <p></p> <b>Non-musician</b> means you don't regularly play an instrument. <p></p> <b>Amateur musician</b> means you regularly play an instrument as a hobby, but you do not get paid. <p></p> <b>Music student</b> means you are engaged in formal music education. <p></p> <b>Semi-professional musician</b> means you get paid to play, but it is not your primary source of income. <p></p> <b>Professional musican</b> means that playing music is your primary source of income.  </p>;0;instruction2;;;;;
true;fullscreen;0;24882;0.0-0.0;1;1;2023-07-28 12:38:13;57e32b63417d99daabf003b405236eda;;"Mozilla/5.0 (Windows NT 10.0; Win64; x64) AppleWebKit/537.36 (KHTML, like Gecko) Chrome/115.0.0.0 Safari/537.36";WebKit;Chrome;115.0.0.0;Windows;10.0;;;;;;;;;
;html-button-response;1;29698;0.0-1.0;1;1;2023-07-28 12:38:13;57e32b63417d99daabf003b405236eda;;"Mozilla/5.0 (Windows NT 10.0; Win64; x64) AppleWebKit/537.36 (KHTML, like Gecko) Chrome/115.0.0.0 Safari/537.36";WebKit;Chrome;115.0.0.0;Windows;10.0;4808;Welcome to the experiment;0;;;;;;
;html-button-response;2;40883;0.0-2.0;1;1;2023-07-28 12:38:13;57e32b63417d99daabf003b405236eda;;"Mozilla/5.0 (Windows NT 10.0; Win64; x64) AppleWebKit/537.36 (KHTML, like Gecko) Chrome/115.0.0.0 Safari/537.36";WebKit;Chrome;115.0.0.0;Windows;10.0;11180;"<p>In this experiment, you will hear 6 excerpts of varying rhythmic complexity.</p>
        <p> At the end of each track, you must rate the level of your enjoyment.</p>";0;instruction;;;;;
true;preload;3;40888;0.0-3.0;1;1;2023-07-28 12:38:13;57e32b63417d99daabf003b405236eda;;"Mozilla/5.0 (Windows NT 10.0; Win64; x64) AppleWebKit/537.36 (KHTML, like Gecko) Chrome/115.0.0.0 Safari/537.36";WebKit;Chrome;115.0.0.0;Windows;10.0;;;;;false;[];[];[];
;audio-slider-response;4;57974;0.0-4.0-0.0;1;1;2023-07-28 12:38:13;57e32b63417d99daabf003b405236eda;;"Mozilla/5.0 (Windows NT 10.0; Win64; x64) AppleWebKit/537.36 (KHTML, like Gecko) Chrome/115.0.0.0 Safari/537.36";WebKit;Chrome;115.0.0.0;Windows;10.0;15749;mid_complex_1.wav;26;audio_slider;;;;;50
;audio-slider-response;5;70432;0.0-4.0-0.1;1;1;2023-07-28 12:38:13;57e32b63417d99daabf003b405236eda;;"Mozilla/5.0 (Windows NT 10.0; Win64; x64) AppleWebKit/537.36 (KHTML, like Gecko) Chrome/115.0.0.0 Safari/537.36";WebKit;Chrome;115.0.0.0;Windows;10.0;11192;high_complex_1.wav;33;audio_slider;;;;;50
;audio-slider-response;6;84114;0.0-4.0-0.2;1;1;2023-07-28 12:38:13;57e32b63417d99daabf003b405236eda;;"Mozilla/5.0 (Windows NT 10.0; Win64; x64) AppleWebKit/537.36 (KHTML, like Gecko) Chrome/115.0.0.0 Safari/537.36";WebKit;Chrome;115.0.0.0;Windows;10.0;11451;low_complex_2.wav;60;audio_slider;;;;;50
;audio-slider-response;7;95964;0.0-4.0-0.3;1;1;2023-07-28 12:38:13;57e32b63417d99daabf003b405236eda;;"Mozilla/5.0 (Windows NT 10.0; Win64; x64) AppleWebKit/537.36 (KHTML, like Gecko) Chrome/115.0.0.0 Safari/537.36";WebKit;Chrome;115.0.0.0;Windows;10.0;10699;mid_complex_2.wav;29;audio_slider;;;;;50
;audio-slider-response;8;107335;0.0-4.0-0.4;1;1;2023-07-28 12:38:13;57e32b63417d99daabf003b405236eda;;"Mozilla/5.0 (Windows NT 10.0; Win64; x64) AppleWebKit/537.36 (KHTML, like Gecko) Chrome/115.0.0.0 Safari/537.36";WebKit;Chrome;115.0.0.0;Windows;10.0;10491;high_complex_2.wav;37;audio_slider;;;;;50
;audio-slider-response;9;136394;0.0-4.0-0.5;1;1;2023-07-28 12:38:13;57e32b63417d99daabf003b405236eda;;"Mozilla/5.0 (Windows NT 10.0; Win64; x64) AppleWebKit/537.36 (KHTML, like Gecko) Chrome/115.0.0.0 Safari/537.36";WebKit;Chrome;115.0.0.0;Windows;10.0;28069;low_complex_1.wav;67;audio_slider;;;;;50
;html-button-response;10;144785;0.0-5.0;1;1;2023-07-28 12:38:13;57e32b63417d99daabf003b405236eda;;"Mozilla/5.0 (Windows NT 10.0; Win64; x64) AppleWebKit/537.36 (KHTML, like Gecko) Chrome/115.0.0.0 Safari/537.36";WebKit;Chrome;115.0.0.0;Windows;10.0;8385;<p>On the next slide we will ask you to define your <b>musical experience</b>. <p></p> <b>Non-musician</b> means you don't regularly play an instrument. <p></p> <b>Amateur musician</b> means you regularly play an instrument as a hobby, but you do not get paid. <p></p> <b>Music student</b> means you are engaged in formal music education. <p></p> <b>Semi-professional musician</b> means you get paid to play, but it is not your primary source of income. <p></p> <b>Professional musican</b> means that playing music is your primary source of income.  </p>;0;instruction2;;;;;
true;fullscreen;0;2370;0.0-0.0;19;1;2023-07-28 12:57:32;57e32b63417d99daabf003b405236eda;;"Mozilla/5.0 (Windows NT 10.0; Win64; x64) AppleWebKit/537.36 (KHTML, like Gecko) Chrome/115.0.0.0 Safari/537.36";WebKit;Chrome;115.0.0.0;Windows;10.0;;;;;;;;;
;html-button-response;1;3531;0.0-1.0;19;1;2023-07-28 12:57:32;57e32b63417d99daabf003b405236eda;;"Mozilla/5.0 (Windows NT 10.0; Win64; x64) AppleWebKit/537.36 (KHTML, like Gecko) Chrome/115.0.0.0 Safari/537.36";WebKit;Chrome;115.0.0.0;Windows;10.0;1159;Welcome to the experiment;0;;;;;;
;html-button-response;2;7079;0.0-2.0;19;1;2023-07-28 12:57:32;57e32b63417d99daabf003b405236eda;;"Mozilla/5.0 (Windows NT 10.0; Win64; x64) AppleWebKit/537.36 (KHTML, like Gecko) Chrome/115.0.0.0 Safari/537.36";WebKit;Chrome;115.0.0.0;Windows;10.0;3547;"<p>In this experiment, you will hear 6 excerpts of varying rhythmic complexity.</p>
        <p> At the end of each track, you must rate the level of your enjoyment.</p>";0;instruction;;;;;
true;preload;3;7080;0.0-3.0;19;1;2023-07-28 12:57:32;57e32b63417d99daabf003b405236eda;;"Mozilla/5.0 (Windows NT 10.0; Win64; x64) AppleWebKit/537.36 (KHTML, like Gecko) Chrome/115.0.0.0 Safari/537.36";WebKit;Chrome;115.0.0.0;Windows;10.0;;;;;false;[];[];[];
;audio-slider-response;4;18754;0.0-4.0-0.0;19;1;2023-07-28 12:57:32;57e32b63417d99daabf003b405236eda;;"Mozilla/5.0 (Windows NT 10.0; Win64; x64) AppleWebKit/537.36 (KHTML, like Gecko) Chrome/115.0.0.0 Safari/537.36";WebKit;Chrome;115.0.0.0;Windows;10.0;11243;high_complex_1.wav;79;audio_slider;;;;;50
;audio-slider-response;5;29145;0.0-4.0-0.1;19;1;2023-07-28 12:57:32;57e32b63417d99daabf003b405236eda;;"Mozilla/5.0 (Windows NT 10.0; Win64; x64) AppleWebKit/537.36 (KHTML, like Gecko) Chrome/115.0.0.0 Safari/537.36";WebKit;Chrome;115.0.0.0;Windows;10.0;9952;high_complex_2.wav;87;audio_slider;;;;;50
;audio-slider-response;6;39146;0.0-4.0-0.2;19;1;2023-07-28 12:57:32;57e32b63417d99daabf003b405236eda;;"Mozilla/5.0 (Windows NT 10.0; Win64; x64) AppleWebKit/537.36 (KHTML, like Gecko) Chrome/115.0.0.0 Safari/537.36";WebKit;Chrome;115.0.0.0;Windows;10.0;9536;mid_complex_2.wav;99;audio_slider;;;;;50
;audio-slider-response;7;49795;0.0-4.0-0.3;19;1;2023-07-28 12:57:32;57e32b63417d99daabf003b405236eda;;"Mozilla/5.0 (Windows NT 10.0; Win64; x64) AppleWebKit/537.36 (KHTML, like Gecko) Chrome/115.0.0.0 Safari/537.36";WebKit;Chrome;115.0.0.0;Windows;10.0;9504;low_complex_2.wav;97;audio_slider;;;;;50
;audio-slider-response;8;60375;0.0-4.0-0.4;19;1;2023-07-28 12:57:32;57e32b63417d99daabf003b405236eda;;"Mozilla/5.0 (Windows NT 10.0; Win64; x64) AppleWebKit/537.36 (KHTML, like Gecko) Chrome/115.0.0.0 Safari/537.36";WebKit;Chrome;115.0.0.0;Windows;10.0;9867;low_complex_1.wav;65;audio_slider;;;;;50
;audio-slider-response;9;70616;0.0-4.0-0.5;19;1;2023-07-28 12:57:32;57e32b63417d99daabf003b405236eda;;"Mozilla/5.0 (Windows NT 10.0; Win64; x64) AppleWebKit/537.36 (KHTML, like Gecko) Chrome/115.0.0.0 Safari/537.36";WebKit;Chrome;115.0.0.0;Windows;10.0;9856;mid_complex_1.wav;98;audio_slider;;;;;50
;html-button-response;10;73411;0.0-5.0;19;1;2023-07-28 12:57:32;57e32b63417d99daabf003b405236eda;;"Mozilla/5.0 (Windows NT 10.0; Win64; x64) AppleWebKit/537.36 (KHTML, like Gecko) Chrome/115.0.0.0 Safari/537.36";WebKit;Chrome;115.0.0.0;Windows;10.0;2792;<p>On the next slide we will ask you to define your <b>musical experience</b>. <p></p> <b>Non-musician</b> means you don't regularly play an instrument. <p></p> <b>Amateur musician</b> means you regularly play an instrument as a hobby, but you do not get paid. <p></p> <b>Music student</b> means you are engaged in formal music education. <p></p> <b>Semi-professional musician</b> means you get paid to play, but it is not your primary source of income. <p></p> <b>Professional musican</b> means that playing music is your primary source of income.  </p>;0;instruction2;;;;;
;html-button-response;11;75731;0.0-6.0;19;1;2023-07-28 12:57:32;57e32b63417d99daabf003b405236eda;;"Mozilla/5.0 (Windows NT 10.0; Win64; x64) AppleWebKit/537.36 (KHTML, like Gecko) Chrome/115.0.0.0 Safari/537.36";WebKit;Chrome;115.0.0.0;Windows;10.0;2318;<p>How would you define your musical experience?</p>;1;text_button_response;;;;;
true;fullscreen;12;76747;0.0-7.0;19;1;2023-07-28 12:57:32;57e32b63417d99daabf003b405236eda;;"Mozilla/5.0 (Windows NT 10.0; Win64; x64) AppleWebKit/537.36 (KHTML, like Gecko) Chrome/115.0.0.0 Safari/537.36";WebKit;Chrome;115.0.0.0;Windows;10.0;;;;;;;;;
true;fullscreen;0;2553;0.0-0.0;5;1;2023-07-28 12:44:00;57e32b63417d99daabf003b405236eda;;"Mozilla/5.0 (Macintosh; Intel Mac OS X 10_15_7) AppleWebKit/537.36 (KHTML, like Gecko) Chrome/115.0.0.0 Safari/537.36";Macintosh;Chrome;115.0.0.0;OS X;10_15_7;;;;;;;;;
;html-button-response;1;3753;0.0-1.0;5;1;2023-07-28 12:44:00;57e32b63417d99daabf003b405236eda;;"Mozilla/5.0 (Macintosh; Intel Mac OS X 10_15_7) AppleWebKit/537.36 (KHTML, like Gecko) Chrome/115.0.0.0 Safari/537.36";Macintosh;Chrome;115.0.0.0;OS X;10_15_7;1196;Welcome to the experiment;0;;;;;;
;html-button-response;2;10265;0.0-2.0;5;1;2023-07-28 12:44:00;57e32b63417d99daabf003b405236eda;;"Mozilla/5.0 (Macintosh; Intel Mac OS X 10_15_7) AppleWebKit/537.36 (KHTML, like Gecko) Chrome/115.0.0.0 Safari/537.36";Macintosh;Chrome;115.0.0.0;OS X;10_15_7;6510;"<p>In this experiment, you will hear 6 excerpts of varying rhythmic complexity.</p>
        <p> At the end of each track, you must rate the level of your enjoyment.</p>";0;instruction;;;;;
true;preload;3;10266;0.0-3.0;5;1;2023-07-28 12:44:00;57e32b63417d99daabf003b405236eda;;"Mozilla/5.0 (Macintosh; Intel Mac OS X 10_15_7) AppleWebKit/537.36 (KHTML, like Gecko) Chrome/115.0.0.0 Safari/537.36";Macintosh;Chrome;115.0.0.0;OS X;10_15_7;;;;;false;[];[];[];
;audio-slider-response;4;23236;0.0-4.0-0.0;5;1;2023-07-28 12:44:00;57e32b63417d99daabf003b405236eda;;"Mozilla/5.0 (Macintosh; Intel Mac OS X 10_15_7) AppleWebKit/537.36 (KHTML, like Gecko) Chrome/115.0.0.0 Safari/537.36";Macintosh;Chrome;115.0.0.0;OS X;10_15_7;12032;low_complex_2.wav;100;audio_slider;;;;;50
;audio-slider-response;5;34373;0.0-4.0-0.1;5;1;2023-07-28 12:44:00;57e32b63417d99daabf003b405236eda;;"Mozilla/5.0 (Macintosh; Intel Mac OS X 10_15_7) AppleWebKit/537.36 (KHTML, like Gecko) Chrome/115.0.0.0 Safari/537.36";Macintosh;Chrome;115.0.0.0;OS X;10_15_7;10240;high_complex_2.wav;100;audio_slider;;;;;50
;audio-slider-response;6;45340;0.0-4.0-0.2;5;1;2023-07-28 12:44:00;57e32b63417d99daabf003b405236eda;;"Mozilla/5.0 (Macintosh; Intel Mac OS X 10_15_7) AppleWebKit/537.36 (KHTML, like Gecko) Chrome/115.0.0.0 Safari/537.36";Macintosh;Chrome;115.0.0.0;OS X;10_15_7;9744;mid_complex_2.wav;100;audio_slider;;;;;50
;audio-slider-response;7;56881;0.0-4.0-0.3;5;1;2023-07-28 12:44:00;57e32b63417d99daabf003b405236eda;;"Mozilla/5.0 (Macintosh; Intel Mac OS X 10_15_7) AppleWebKit/537.36 (KHTML, like Gecko) Chrome/115.0.0.0 Safari/537.36";Macintosh;Chrome;115.0.0.0;OS X;10_15_7;10096;low_complex_1.wav;100;audio_slider;;;;;50
;audio-slider-response;8;68683;0.0-4.0-0.4;5;1;2023-07-28 12:44:00;57e32b63417d99daabf003b405236eda;;"Mozilla/5.0 (Macintosh; Intel Mac OS X 10_15_7) AppleWebKit/537.36 (KHTML, like Gecko) Chrome/115.0.0.0 Safari/537.36";Macintosh;Chrome;115.0.0.0;OS X;10_15_7;10816;high_complex_1.wav;0;audio_slider;;;;;50
;audio-slider-response;9;80833;0.0-4.0-0.5;5;1;2023-07-28 12:44:00;57e32b63417d99daabf003b405236eda;;"Mozilla/5.0 (Macintosh; Intel Mac OS X 10_15_7) AppleWebKit/537.36 (KHTML, like Gecko) Chrome/115.0.0.0 Safari/537.36";Macintosh;Chrome;115.0.0.0;OS X;10_15_7;11152;mid_complex_1.wav;100;audio_slider;;;;;50
;html-button-response;10;98367;0.0-5.0;5;1;2023-07-28 12:44:00;57e32b63417d99daabf003b405236eda;;"Mozilla/5.0 (Macintosh; Intel Mac OS X 10_15_7) AppleWebKit/537.36 (KHTML, like Gecko) Chrome/115.0.0.0 Safari/537.36";Macintosh;Chrome;115.0.0.0;OS X;10_15_7;17531;<p>On the next slide we will ask you to define your <b>musical experience</b>. <p></p> <b>Non-musician</b> means you don't regularly play an instrument. <p></p> <b>Amateur musician</b> means you regularly play an instrument as a hobby, but you do not get paid. <p></p> <b>Music student</b> means you are engaged in formal music education. <p></p> <b>Semi-professional musician</b> means you get paid to play, but it is not your primary source of income. <p></p> <b>Professional musican</b> means that playing music is your primary source of income.  </p>;0;instruction2;;;;;
true;fullscreen;0;2313;0.0-0.0;6;1;2023-07-28 12:44:08;57e32b63417d99daabf003b405236eda;;"Mozilla/5.0 (Macintosh; Intel Mac OS X 10_15_7) AppleWebKit/537.36 (KHTML, like Gecko) Chrome/114.0.0.0 Safari/537.36";Macintosh;Chrome;114.0.0.0;OS X;10_15_7;;;;;;;;;
;html-button-response;1;3319;0.0-1.0;6;1;2023-07-28 12:44:08;57e32b63417d99daabf003b405236eda;;"Mozilla/5.0 (Macintosh; Intel Mac OS X 10_15_7) AppleWebKit/537.36 (KHTML, like Gecko) Chrome/114.0.0.0 Safari/537.36";Macintosh;Chrome;114.0.0.0;OS X;10_15_7;1004;Welcome to the experiment;0;;;;;;
;html-button-response;2;11496;0.0-2.0;6;1;2023-07-28 12:44:08;57e32b63417d99daabf003b405236eda;;"Mozilla/5.0 (Macintosh; Intel Mac OS X 10_15_7) AppleWebKit/537.36 (KHTML, like Gecko) Chrome/114.0.0.0 Safari/537.36";Macintosh;Chrome;114.0.0.0;OS X;10_15_7;8176;"<p>In this experiment, you will hear 6 excerpts of varying rhythmic complexity.</p>
        <p> At the end of each track, you must rate the level of your enjoyment.</p>";0;instruction;;;;;
true;preload;3;11497;0.0-3.0;6;1;2023-07-28 12:44:08;57e32b63417d99daabf003b405236eda;;"Mozilla/5.0 (Macintosh; Intel Mac OS X 10_15_7) AppleWebKit/537.36 (KHTML, like Gecko) Chrome/114.0.0.0 Safari/537.36";Macintosh;Chrome;114.0.0.0;OS X;10_15_7;;;;;false;[];[];[];
;audio-slider-response;4;24128;0.0-4.0-0.0;6;1;2023-07-28 12:44:08;57e32b63417d99daabf003b405236eda;;"Mozilla/5.0 (Macintosh; Intel Mac OS X 10_15_7) AppleWebKit/537.36 (KHTML, like Gecko) Chrome/114.0.0.0 Safari/537.36";Macintosh;Chrome;114.0.0.0;OS X;10_15_7;12492;high_complex_2.wav;81;audio_slider;;;;;50
;audio-slider-response;5;35800;0.0-4.0-0.1;6;1;2023-07-28 12:44:08;57e32b63417d99daabf003b405236eda;;"Mozilla/5.0 (Macintosh; Intel Mac OS X 10_15_7) AppleWebKit/537.36 (KHTML, like Gecko) Chrome/114.0.0.0 Safari/537.36";Macintosh;Chrome;114.0.0.0;OS X;10_15_7;11552;low_complex_1.wav;80;audio_slider;;;;;50
;audio-slider-response;6;46847;0.0-4.0-0.2;6;1;2023-07-28 12:44:08;57e32b63417d99daabf003b405236eda;;"Mozilla/5.0 (Macintosh; Intel Mac OS X 10_15_7) AppleWebKit/537.36 (KHTML, like Gecko) Chrome/114.0.0.0 Safari/537.36";Macintosh;Chrome;114.0.0.0;OS X;10_15_7;10931;high_complex_1.wav;70;audio_slider;;;;;50
;audio-slider-response;7;56535;0.0-4.0-0.3;6;1;2023-07-28 12:44:08;57e32b63417d99daabf003b405236eda;;"Mozilla/5.0 (Macintosh; Intel Mac OS X 10_15_7) AppleWebKit/537.36 (KHTML, like Gecko) Chrome/114.0.0.0 Safari/537.36";Macintosh;Chrome;114.0.0.0;OS X;10_15_7;9561;low_complex_2.wav;54;audio_slider;;;;;50
;audio-slider-response;8;66311;0.0-4.0-0.4;6;1;2023-07-28 12:44:08;57e32b63417d99daabf003b405236eda;;"Mozilla/5.0 (Macintosh; Intel Mac OS X 10_15_7) AppleWebKit/537.36 (KHTML, like Gecko) Chrome/114.0.0.0 Safari/537.36";Macintosh;Chrome;114.0.0.0;OS X;10_15_7;9648;mid_complex_1.wav;100;audio_slider;;;;;50
;audio-slider-response;9;76896;0.0-4.0-0.5;6;1;2023-07-28 12:44:08;57e32b63417d99daabf003b405236eda;;"Mozilla/5.0 (Macintosh; Intel Mac OS X 10_15_7) AppleWebKit/537.36 (KHTML, like Gecko) Chrome/114.0.0.0 Safari/537.36";Macintosh;Chrome;114.0.0.0;OS X;10_15_7;10437;mid_complex_2.wav;76;audio_slider;;;;;50
;html-button-response;10;87481;0.0-5.0;6;1;2023-07-28 12:44:08;57e32b63417d99daabf003b405236eda;;"Mozilla/5.0 (Macintosh; Intel Mac OS X 10_15_7) AppleWebKit/537.36 (KHTML, like Gecko) Chrome/114.0.0.0 Safari/537.36";Macintosh;Chrome;114.0.0.0;OS X;10_15_7;10583;<p>On the next slide we will ask you to define your <b>musical experience</b>. <p></p> <b>Non-musician</b> means you don't regularly play an instrument. <p></p> <b>Amateur musician</b> means you regularly play an instrument as a hobby, but you do not get paid. <p></p> <b>Music student</b> means you are engaged in formal music education. <p></p> <b>Semi-professional musician</b> means you get paid to play, but it is not your primary source of income. <p></p> <b>Professional musican</b> means that playing music is your primary source of income.  </p>;0;instruction2;;;;;
true;fullscreen;0;2216;0.0-0.0;8;1;2023-07-28 12:44:42;57e32b63417d99daabf003b405236eda;;"Mozilla/5.0 (Macintosh; Intel Mac OS X 10_15_7) AppleWebKit/537.36 (KHTML, like Gecko) Chrome/113.0.0.0 Safari/537.36";Macintosh;Chrome;113.0.0.0;OS X;10_15_7;;;;;;;;;
;html-button-response;1;4661;0.0-1.0;8;1;2023-07-28 12:44:42;57e32b63417d99daabf003b405236eda;;"Mozilla/5.0 (Macintosh; Intel Mac OS X 10_15_7) AppleWebKit/537.36 (KHTML, like Gecko) Chrome/113.0.0.0 Safari/537.36";Macintosh;Chrome;113.0.0.0;OS X;10_15_7;2442;Welcome to the experiment;0;;;;;;
;html-button-response;2;6200;0.0-2.0;8;1;2023-07-28 12:44:42;57e32b63417d99daabf003b405236eda;;"Mozilla/5.0 (Macintosh; Intel Mac OS X 10_15_7) AppleWebKit/537.36 (KHTML, like Gecko) Chrome/113.0.0.0 Safari/537.36";Macintosh;Chrome;113.0.0.0;OS X;10_15_7;1538;"<p>In this experiment, you will hear 6 excerpts of varying rhythmic complexity.</p>
        <p> At the end of each track, you must rate the level of your enjoyment.</p>";0;instruction;;;;;
true;preload;3;6201;0.0-3.0;8;1;2023-07-28 12:44:42;57e32b63417d99daabf003b405236eda;;"Mozilla/5.0 (Macintosh; Intel Mac OS X 10_15_7) AppleWebKit/537.36 (KHTML, like Gecko) Chrome/113.0.0.0 Safari/537.36";Macintosh;Chrome;113.0.0.0;OS X;10_15_7;;;;;false;[];[];[];
;audio-slider-response;4;19000;0.0-4.0-0.0;8;1;2023-07-28 12:44:42;57e32b63417d99daabf003b405236eda;;"Mozilla/5.0 (Macintosh; Intel Mac OS X 10_15_7) AppleWebKit/537.36 (KHTML, like Gecko) Chrome/113.0.0.0 Safari/537.36";Macintosh;Chrome;113.0.0.0;OS X;10_15_7;12556;low_complex_2.wav;0;audio_slider;;;;;50
;audio-slider-response;5;28706;0.0-4.0-0.1;8;1;2023-07-28 12:44:42;57e32b63417d99daabf003b405236eda;;"Mozilla/5.0 (Macintosh; Intel Mac OS X 10_15_7) AppleWebKit/537.36 (KHTML, like Gecko) Chrome/113.0.0.0 Safari/537.36";Macintosh;Chrome;113.0.0.0;OS X;10_15_7;9236;low_complex_1.wav;82;audio_slider;;;;;50
;audio-slider-response;6;38952;0.0-4.0-0.2;8;1;2023-07-28 12:44:42;57e32b63417d99daabf003b405236eda;;"Mozilla/5.0 (Macintosh; Intel Mac OS X 10_15_7) AppleWebKit/537.36 (KHTML, like Gecko) Chrome/113.0.0.0 Safari/537.36";Macintosh;Chrome;113.0.0.0;OS X;10_15_7;9985;high_complex_1.wav;15;audio_slider;;;;;50
;audio-slider-response;7;48912;0.0-4.0-0.3;8;1;2023-07-28 12:44:42;57e32b63417d99daabf003b405236eda;;"Mozilla/5.0 (Macintosh; Intel Mac OS X 10_15_7) AppleWebKit/537.36 (KHTML, like Gecko) Chrome/113.0.0.0 Safari/537.36";Macintosh;Chrome;113.0.0.0;OS X;10_15_7;9503;mid_complex_2.wav;100;audio_slider;;;;;50
;audio-slider-response;8;59003;0.0-4.0-0.4;8;1;2023-07-28 12:44:42;57e32b63417d99daabf003b405236eda;;"Mozilla/5.0 (Macintosh; Intel Mac OS X 10_15_7) AppleWebKit/537.36 (KHTML, like Gecko) Chrome/113.0.0.0 Safari/537.36";Macintosh;Chrome;113.0.0.0;OS X;10_15_7;9845;high_complex_2.wav;0;audio_slider;;;;;50
;audio-slider-response;9;69926;0.0-4.0-0.5;8;1;2023-07-28 12:44:42;57e32b63417d99daabf003b405236eda;;"Mozilla/5.0 (Macintosh; Intel Mac OS X 10_15_7) AppleWebKit/537.36 (KHTML, like Gecko) Chrome/113.0.0.0 Safari/537.36";Macintosh;Chrome;113.0.0.0;OS X;10_15_7;10670;mid_complex_1.wav;100;audio_slider;;;;;50
;html-button-response;10;81551;0.0-5.0;8;1;2023-07-28 12:44:42;57e32b63417d99daabf003b405236eda;;"Mozilla/5.0 (Macintosh; Intel Mac OS X 10_15_7) AppleWebKit/537.36 (KHTML, like Gecko) Chrome/113.0.0.0 Safari/537.36";Macintosh;Chrome;113.0.0.0;OS X;10_15_7;11624;<p>On the next slide we will ask you to define your <b>musical experience</b>. <p></p> <b>Non-musician</b> means you don't regularly play an instrument. <p></p> <b>Amateur musician</b> means you regularly play an instrument as a hobby, but you do not get paid. <p></p> <b>Music student</b> means you are engaged in formal music education. <p></p> <b>Semi-professional musician</b> means you get paid to play, but it is not your primary source of income. <p></p> <b>Professional musican</b> means that playing music is your primary source of income.  </p>;0;instruction2;;;;;
;html-button-response;11;85030;0.0-6.0;8;1;2023-07-28 12:44:42;57e32b63417d99daabf003b405236eda;;"Mozilla/5.0 (Macintosh; Intel Mac OS X 10_15_7) AppleWebKit/537.36 (KHTML, like Gecko) Chrome/113.0.0.0 Safari/537.36";Macintosh;Chrome;113.0.0.0;OS X;10_15_7;3478;<p>How would you define your musical experience?</p>;3;text_button_response;;;;;
true;fullscreen;12;86040;0.0-7.0;8;1;2023-07-28 12:44:42;57e32b63417d99daabf003b405236eda;;"Mozilla/5.0 (Macintosh; Intel Mac OS X 10_15_7) AppleWebKit/537.36 (KHTML, like Gecko) Chrome/113.0.0.0 Safari/537.36";Macintosh;Chrome;113.0.0.0;OS X;10_15_7;;;;;;;;;
true;fullscreen;0;3555;0.0-0.0;7;1;2023-07-28 12:44:18;57e32b63417d99daabf003b405236eda;;"Mozilla/5.0 (Windows NT 10.0; Win64; x64; rv:109.0) Gecko/20100101 Firefox/115.0";;Firefox;115.0;Windows;10.0;;;;;;;;;
;html-button-response;1;4904;0.0-1.0;7;1;2023-07-28 12:44:18;57e32b63417d99daabf003b405236eda;;"Mozilla/5.0 (Windows NT 10.0; Win64; x64; rv:109.0) Gecko/20100101 Firefox/115.0";;Firefox;115.0;Windows;10.0;1347;Welcome to the experiment;0;;;;;;
;html-button-response;2;11229;0.0-2.0;7;1;2023-07-28 12:44:18;57e32b63417d99daabf003b405236eda;;"Mozilla/5.0 (Windows NT 10.0; Win64; x64; rv:109.0) Gecko/20100101 Firefox/115.0";;Firefox;115.0;Windows;10.0;6324;"<p>In this experiment, you will hear 6 excerpts of varying rhythmic complexity.</p>
        <p> At the end of each track, you must rate the level of your enjoyment.</p>";0;instruction;;;;;
true;preload;3;11231;0.0-3.0;7;1;2023-07-28 12:44:18;57e32b63417d99daabf003b405236eda;;"Mozilla/5.0 (Windows NT 10.0; Win64; x64; rv:109.0) Gecko/20100101 Firefox/115.0";;Firefox;115.0;Windows;10.0;;;;;false;[];[];[];
;audio-slider-response;4;23365;0.0-4.0-0.0;7;1;2023-07-28 12:44:18;57e32b63417d99daabf003b405236eda;;"Mozilla/5.0 (Windows NT 10.0; Win64; x64; rv:109.0) Gecko/20100101 Firefox/115.0";;Firefox;115.0;Windows;10.0;11640;mid_complex_1.wav;52;audio_slider;;;;;50
;audio-slider-response;5;36350;0.0-4.0-0.1;7;1;2023-07-28 12:44:18;57e32b63417d99daabf003b405236eda;;"Mozilla/5.0 (Windows NT 10.0; Win64; x64; rv:109.0) Gecko/20100101 Firefox/115.0";;Firefox;115.0;Windows;10.0;12512;low_complex_2.wav;38;audio_slider;;;;;50
;audio-slider-response;6;47848;0.0-4.0-0.2;7;1;2023-07-28 12:44:18;57e32b63417d99daabf003b405236eda;;"Mozilla/5.0 (Windows NT 10.0; Win64; x64; rv:109.0) Gecko/20100101 Firefox/115.0";;Firefox;115.0;Windows;10.0;11019;low_complex_1.wav;55;audio_slider;;;;;50
;audio-slider-response;7;58938;0.0-4.0-0.3;7;1;2023-07-28 12:44:18;57e32b63417d99daabf003b405236eda;;"Mozilla/5.0 (Windows NT 10.0; Win64; x64; rv:109.0) Gecko/20100101 Firefox/115.0";;Firefox;115.0;Windows;10.0;10600;high_complex_2.wav;54;audio_slider;;;;;50
;audio-slider-response;8;70121;0.0-4.0-0.4;7;1;2023-07-28 12:44:18;57e32b63417d99daabf003b405236eda;;"Mozilla/5.0 (Windows NT 10.0; Win64; x64; rv:109.0) Gecko/20100101 Firefox/115.0";;Firefox;115.0;Windows;10.0;10709;mid_complex_2.wav;55;audio_slider;;;;;50
;audio-slider-response;9;81362;0.0-4.0-0.5;7;1;2023-07-28 12:44:18;57e32b63417d99daabf003b405236eda;;"Mozilla/5.0 (Windows NT 10.0; Win64; x64; rv:109.0) Gecko/20100101 Firefox/115.0";;Firefox;115.0;Windows;10.0;10760;high_complex_1.wav;42;audio_slider;;;;;50
;html-button-response;10;90540;0.0-5.0;7;1;2023-07-28 12:44:18;57e32b63417d99daabf003b405236eda;;"Mozilla/5.0 (Windows NT 10.0; Win64; x64; rv:109.0) Gecko/20100101 Firefox/115.0";;Firefox;115.0;Windows;10.0;9173;<p>On the next slide we will ask you to define your <b>musical experience</b>. <p></p> <b>Non-musician</b> means you don't regularly play an instrument. <p></p> <b>Amateur musician</b> means you regularly play an instrument as a hobby, but you do not get paid. <p></p> <b>Music student</b> means you are engaged in formal music education. <p></p> <b>Semi-professional musician</b> means you get paid to play, but it is not your primary source of income. <p></p> <b>Professional musican</b> means that playing music is your primary source of income.  </p>;0;instruction2;;;;;
;html-button-response;11;93592;0.0-6.0;7;1;2023-07-28 12:44:18;57e32b63417d99daabf003b405236eda;;"Mozilla/5.0 (Windows NT 10.0; Win64; x64; rv:109.0) Gecko/20100101 Firefox/115.0";;Firefox;115.0;Windows;10.0;3051;<p>How would you define your musical experience?</p>;0;text_button_response;;;;;
true;fullscreen;12;94595;0.0-7.0;7;1;2023-07-28 12:44:18;57e32b63417d99daabf003b405236eda;;"Mozilla/5.0 (Windows NT 10.0; Win64; x64; rv:109.0) Gecko/20100101 Firefox/115.0";;Firefox;115.0;Windows;10.0;;;;;;;;;